### imag part of conductivity (in units of 10^15 sec^-1)
   0.0000          3.2898          3.2898          3.2898          0.0000          0.0000          0.0000
   0.0200          3.0777          3.0777          3.0777          0.0000          0.0000          0.0000
   0.0400          2.8749          2.8749          2.8749          0.0000          0.0000          0.0000
   0.0600          2.6900          2.6900          2.6900          0.0000          0.0000          0.0000
   0.0800          2.5310          2.5310          2.5310          0.0000          0.0000          0.0000
   0.1000          2.4043          2.4043          2.4043          0.0000          0.0000          0.0000
   0.1200          2.3148          2.3148          2.3148          0.0000          0.0000          0.0000
   0.1400          2.2654          2.2654          2.2654          0.0000          0.0000          0.0000
   0.1600          2.2573          2.2573          2.2573          0.0000          0.0000          0.0000
   0.1800          2.2895          2.2895          2.2895          0.0000          0.0000          0.0000
   0.2000          2.3595          2.3595          2.3595          0.0000          0.0000          0.0000
   0.2200          2.4631          2.4631          2.4631          0.0000          0.0000          0.0000
   0.2400          2.5950          2.5950          2.5950          0.0000          0.0000          0.0000
   0.2600          2.7488          2.7488          2.7488          0.0000          0.0000          0.0000
   0.2800          2.9180          2.9180          2.9180          0.0000          0.0000          0.0000
   0.3000          3.0959          3.0959          3.0959          0.0000          0.0000          0.0000
   0.3200          3.2761          3.2761          3.2761          0.0000          0.0000          0.0000
   0.3400          3.4527          3.4527          3.4527          0.0000          0.0000          0.0000
   0.3600          3.6209          3.6209          3.6209          0.0000          0.0000          0.0000
   0.3800          3.7767          3.7767          3.7767          0.0000          0.0000          0.0000
   0.4000          3.9172          3.9172          3.9172          0.0000          0.0000          0.0000
   0.4200          4.0407          4.0407          4.0407          0.0000          0.0000          0.0000
   0.4400          4.1464          4.1464          4.1464          0.0000          0.0000          0.0000
   0.4600          4.2345          4.2345          4.2345          0.0000          0.0000          0.0000
   0.4800          4.3056          4.3056          4.3056          0.0000          0.0000          0.0000
   0.5000          4.3614          4.3614          4.3614          0.0000          0.0000          0.0000
   0.5200          4.4036          4.4036          4.4036          0.0000          0.0000          0.0000
   0.5400          4.4344          4.4344          4.4344          0.0000          0.0000          0.0000
   0.5600          4.4559          4.4559          4.4559          0.0000          0.0000          0.0000
   0.5800          4.4703          4.4703          4.4703          0.0000          0.0000          0.0000
   0.6000          4.4799          4.4799          4.4799          0.0000          0.0000          0.0000
   0.6200          4.4865          4.4865          4.4865          0.0000          0.0000          0.0000
   0.6400          4.4920          4.4920          4.4920          0.0000          0.0000          0.0000
   0.6600          4.4979          4.4979          4.4979          0.0000          0.0000          0.0000
   0.6800          4.5055          4.5055          4.5055          0.0000          0.0000          0.0000
   0.7000          4.5158          4.5158          4.5158          0.0000          0.0000          0.0000
   0.7200          4.5298          4.5298          4.5298          0.0000          0.0000          0.0000
   0.7400          4.5477          4.5477          4.5477          0.0000          0.0000          0.0000
   0.7600          4.5700          4.5700          4.5700          0.0000          0.0000          0.0000
   0.7800          4.5963          4.5963          4.5963          0.0000          0.0000          0.0000
   0.8000          4.6265          4.6265          4.6265          0.0000          0.0000          0.0000
   0.8200          4.6598          4.6598          4.6598          0.0000          0.0000          0.0000
   0.8400          4.6953          4.6953          4.6953          0.0000          0.0000          0.0000
   0.8600          4.7320          4.7320          4.7320          0.0000          0.0000          0.0000
   0.8800          4.7688          4.7688          4.7688          0.0000          0.0000          0.0000
   0.9000          4.8041          4.8041          4.8041          0.0000          0.0000          0.0000
   0.9200          4.8369          4.8369          4.8369          0.0000          0.0000          0.0000
   0.9400          4.8658          4.8658          4.8658          0.0000          0.0000          0.0000
   0.9600          4.8898          4.8898          4.8898          0.0000          0.0000          0.0000
   0.9800          4.9080          4.9080          4.9080          0.0000          0.0000          0.0000
   1.0000          4.9197          4.9197          4.9197          0.0000          0.0000          0.0000
   1.0200          4.9245          4.9245          4.9245          0.0000          0.0000          0.0000
   1.0400          4.9224          4.9224          4.9224          0.0000          0.0000          0.0000
   1.0600          4.9133          4.9133          4.9133          0.0000          0.0000          0.0000
   1.0800          4.8977          4.8977          4.8977          0.0000          0.0000          0.0000
   1.1000          4.8760          4.8760          4.8760          0.0000          0.0000          0.0000
   1.1200          4.8488          4.8488          4.8488          0.0000          0.0000          0.0000
   1.1400          4.8169          4.8169          4.8169          0.0000          0.0000          0.0000
   1.1600          4.7810          4.7810          4.7810          0.0000          0.0000          0.0000
   1.1800          4.7416          4.7416          4.7416          0.0000          0.0000          0.0000
   1.2000          4.6994          4.6994          4.6994          0.0000          0.0000          0.0000
   1.2200          4.6550          4.6550          4.6550          0.0000          0.0000          0.0000
   1.2400          4.6087          4.6087          4.6087          0.0000          0.0000          0.0000
   1.2600          4.5609          4.5609          4.5609          0.0000          0.0000          0.0000
   1.2800          4.5119          4.5119          4.5119          0.0000          0.0000          0.0000
   1.3000          4.4617          4.4617          4.4617          0.0000          0.0000          0.0000
   1.3200          4.4106          4.4106          4.4106          0.0000          0.0000          0.0000
   1.3400          4.3585          4.3585          4.3585          0.0000          0.0000          0.0000
   1.3600          4.3053          4.3053          4.3053          0.0000          0.0000          0.0000
   1.3800          4.2512          4.2512          4.2512          0.0000          0.0000          0.0000
   1.4000          4.1959          4.1959          4.1959          0.0000          0.0000          0.0000
   1.4200          4.1395          4.1395          4.1395          0.0000          0.0000          0.0000
   1.4400          4.0818          4.0818          4.0818          0.0000          0.0000          0.0000
   1.4600          4.0227          4.0227          4.0227          0.0000          0.0000          0.0000
   1.4800          3.9623          3.9623          3.9623          0.0000          0.0000          0.0000
   1.5000          3.9004          3.9004          3.9004          0.0000          0.0000          0.0000
   1.5200          3.8372          3.8372          3.8372          0.0000          0.0000          0.0000
   1.5400          3.7727          3.7727          3.7727          0.0000          0.0000          0.0000
   1.5600          3.7070          3.7070          3.7070          0.0000          0.0000          0.0000
   1.5800          3.6403          3.6403          3.6403          0.0000          0.0000          0.0000
   1.6000          3.5729          3.5729          3.5729          0.0000          0.0000          0.0000
   1.6200          3.5050          3.5050          3.5050          0.0000          0.0000          0.0000
   1.6400          3.4370          3.4370          3.4370          0.0000          0.0000          0.0000
   1.6600          3.3692          3.3692          3.3692          0.0000          0.0000          0.0000
   1.6800          3.3020          3.3020          3.3020          0.0000          0.0000          0.0000
   1.7000          3.2356          3.2356          3.2356          0.0000          0.0000          0.0000
   1.7200          3.1703          3.1703          3.1703          0.0000          0.0000          0.0000
   1.7400          3.1062          3.1062          3.1062          0.0000          0.0000          0.0000
   1.7600          3.0436          3.0436          3.0436          0.0000          0.0000          0.0000
   1.7800          2.9822          2.9822          2.9822          0.0000          0.0000          0.0000
   1.8000          2.9220          2.9220          2.9220          0.0000          0.0000          0.0000
   1.8200          2.8627          2.8627          2.8627          0.0000          0.0000          0.0000
   1.8400          2.8038          2.8038          2.8038          0.0000          0.0000          0.0000
   1.8600          2.7448          2.7448          2.7448          0.0000          0.0000          0.0000
   1.8800          2.6851          2.6851          2.6851          0.0000          0.0000          0.0000
   1.9000          2.6240          2.6240          2.6240          0.0000          0.0000          0.0000
   1.9200          2.5607          2.5607          2.5607          0.0000          0.0000          0.0000
   1.9400          2.4945          2.4945          2.4945          0.0000          0.0000          0.0000
   1.9600          2.4247          2.4247          2.4247          0.0000          0.0000          0.0000
   1.9800          2.3508          2.3508          2.3508          0.0000          0.0000          0.0000
   2.0000          2.2723          2.2723          2.2723          0.0000          0.0000          0.0000
   2.0200          2.1888          2.1888          2.1888          0.0000          0.0000          0.0000
   2.0400          2.1003          2.1003          2.1003          0.0000          0.0000          0.0000
   2.0600          2.0068          2.0068          2.0068          0.0000          0.0000          0.0000
   2.0800          1.9086          1.9086          1.9086          0.0000          0.0000          0.0000
   2.1000          1.8063          1.8063          1.8063          0.0000          0.0000          0.0000
   2.1200          1.7006          1.7006          1.7006          0.0000          0.0000          0.0000
   2.1400          1.5922          1.5922          1.5922          0.0000          0.0000          0.0000
   2.1600          1.4823          1.4823          1.4823          0.0000          0.0000          0.0000
   2.1800          1.3719          1.3719          1.3719          0.0000          0.0000          0.0000
   2.2000          1.2620          1.2620          1.2620          0.0000          0.0000          0.0000
   2.2200          1.1538          1.1538          1.1538          0.0000          0.0000          0.0000
   2.2400          1.0482          1.0482          1.0482          0.0000          0.0000          0.0000
   2.2600          0.9462          0.9462          0.9462          0.0000          0.0000          0.0000
   2.2800          0.8484          0.8484          0.8484          0.0000          0.0000          0.0000
   2.3000          0.7555          0.7555          0.7555          0.0000          0.0000          0.0000
   2.3200          0.6677          0.6677          0.6677          0.0000          0.0000          0.0000
   2.3400          0.5854          0.5854          0.5854          0.0000          0.0000          0.0000
   2.3600          0.5087          0.5087          0.5087          0.0000          0.0000          0.0000
   2.3800          0.4374          0.4374          0.4374          0.0000          0.0000          0.0000
   2.4000          0.3715          0.3715          0.3715          0.0000          0.0000          0.0000
   2.4200          0.3109          0.3109          0.3109          0.0000          0.0000          0.0000
   2.4400          0.2557          0.2557          0.2557          0.0000          0.0000          0.0000
   2.4600          0.2057          0.2057          0.2057          0.0000          0.0000          0.0000
   2.4800          0.1612          0.1612          0.1612          0.0000          0.0000          0.0000
   2.5000          0.1224          0.1224          0.1224          0.0000          0.0000          0.0000
   2.5200          0.0895          0.0895          0.0895          0.0000          0.0000          0.0000
   2.5400          0.0631          0.0631          0.0631          0.0000          0.0000          0.0000
   2.5600          0.0437          0.0437          0.0437          0.0000          0.0000          0.0000
   2.5800          0.0318          0.0318          0.0318          0.0000          0.0000          0.0000
   2.6000          0.0281          0.0281          0.0281          0.0000          0.0000          0.0000
   2.6200          0.0331          0.0331          0.0331          0.0000          0.0000          0.0000
   2.6400          0.0474          0.0474          0.0474          0.0000          0.0000          0.0000
   2.6600          0.0716          0.0716          0.0716          0.0000          0.0000          0.0000
   2.6800          0.1062          0.1062          0.1062          0.0000          0.0000          0.0000
   2.7000          0.1517          0.1517          0.1517          0.0000          0.0000          0.0000
   2.7200          0.2084          0.2084          0.2084          0.0000          0.0000          0.0000
   2.7400          0.2769          0.2769          0.2769          0.0000          0.0000          0.0000
   2.7600          0.3574          0.3574          0.3574          0.0000          0.0000          0.0000
   2.7800          0.4501          0.4501          0.4501          0.0000          0.0000          0.0000
   2.8000          0.5553          0.5553          0.5553          0.0000          0.0000          0.0000
   2.8200          0.6730          0.6730          0.6730          0.0000          0.0000          0.0000
   2.8400          0.8028          0.8028          0.8028          0.0000          0.0000          0.0000
   2.8600          0.9445          0.9445          0.9445          0.0000          0.0000          0.0000
   2.8800          1.0973          1.0973          1.0973          0.0000          0.0000          0.0000
   2.9000          1.2600          1.2600          1.2600          0.0000          0.0000          0.0000
   2.9200          1.4315          1.4315          1.4315          0.0000          0.0000          0.0000
   2.9400          1.6099          1.6099          1.6099          0.0000          0.0000          0.0000
   2.9600          1.7935          1.7935          1.7935          0.0000          0.0000          0.0000
   2.9800          1.9799          1.9799          1.9799          0.0000          0.0000          0.0000
   3.0000          2.1673          2.1673          2.1673          0.0000          0.0000          0.0000
   3.0200          2.3533          2.3533          2.3533          0.0000          0.0000          0.0000
   3.0400          2.5362          2.5362          2.5362          0.0000          0.0000          0.0000
   3.0600          2.7143          2.7143          2.7143          0.0000          0.0000          0.0000
   3.0800          2.8865          2.8865          2.8865          0.0000          0.0000          0.0000
   3.1000          3.0522          3.0522          3.0522          0.0000          0.0000          0.0000
   3.1200          3.2113          3.2113          3.2113          0.0000          0.0000          0.0000
   3.1400          3.3641          3.3641          3.3641          0.0000          0.0000          0.0000
   3.1600          3.5114          3.5114          3.5114          0.0000          0.0000          0.0000
   3.1800          3.6546          3.6546          3.6546          0.0000          0.0000          0.0000
   3.2000          3.7949          3.7949          3.7949          0.0000          0.0000          0.0000
   3.2200          3.9338          3.9338          3.9338          0.0000          0.0000          0.0000
   3.2400          4.0727          4.0727          4.0727          0.0000          0.0000          0.0000
   3.2600          4.2126          4.2126          4.2126          0.0000          0.0000          0.0000
   3.2800          4.3542          4.3542          4.3542          0.0000          0.0000          0.0000
   3.3000          4.4980          4.4980          4.4980          0.0000          0.0000          0.0000
   3.3200          4.6436          4.6436          4.6436          0.0000          0.0000          0.0000
   3.3400          4.7905          4.7905          4.7905          0.0000          0.0000          0.0000
   3.3600          4.9378          4.9378          4.9378          0.0000          0.0000          0.0000
   3.3800          5.0841          5.0841          5.0841          0.0000          0.0000          0.0000
   3.4000          5.2281          5.2281          5.2281          0.0000          0.0000          0.0000
   3.4200          5.3685          5.3685          5.3685          0.0000          0.0000          0.0000
   3.4400          5.5038          5.5038          5.5038          0.0000          0.0000          0.0000
   3.4600          5.6331          5.6331          5.6331          0.0000          0.0000          0.0000
   3.4800          5.7555          5.7555          5.7555          0.0000          0.0000          0.0000
   3.5000          5.8706          5.8706          5.8706          0.0000          0.0000          0.0000
   3.5200          5.9781          5.9781          5.9781          0.0000          0.0000          0.0000
   3.5400          6.0782          6.0782          6.0782          0.0000          0.0000          0.0000
   3.5600          6.1711          6.1711          6.1711          0.0000          0.0000          0.0000
   3.5800          6.2574          6.2574          6.2574          0.0000          0.0000          0.0000
   3.6000          6.3374          6.3374          6.3374          0.0000          0.0000          0.0000
   3.6200          6.4116          6.4116          6.4116          0.0000          0.0000          0.0000
   3.6400          6.4806          6.4806          6.4806          0.0000          0.0000          0.0000
   3.6600          6.5444          6.5444          6.5444          0.0000          0.0000          0.0000
   3.6800          6.6033          6.6033          6.6033          0.0000          0.0000          0.0000
   3.7000          6.6571          6.6571          6.6571          0.0000          0.0000          0.0000
   3.7200          6.7057          6.7057          6.7057          0.0000          0.0000          0.0000
   3.7400          6.7485          6.7485          6.7485          0.0000          0.0000          0.0000
   3.7600          6.7852          6.7852          6.7852          0.0000          0.0000          0.0000
   3.7800          6.8153          6.8153          6.8153          0.0000          0.0000          0.0000
   3.8000          6.8383          6.8383          6.8383          0.0000          0.0000          0.0000
   3.8200          6.8538          6.8538          6.8538          0.0000          0.0000          0.0000
   3.8400          6.8616          6.8616          6.8616          0.0000          0.0000          0.0000
   3.8600          6.8617          6.8617          6.8617          0.0000          0.0000          0.0000
   3.8800          6.8543          6.8543          6.8543          0.0000          0.0000          0.0000
   3.9000          6.8399          6.8399          6.8399          0.0000          0.0000          0.0000
   3.9200          6.8193          6.8193          6.8193          0.0000          0.0000          0.0000
   3.9400          6.7937          6.7937          6.7937          0.0000          0.0000          0.0000
   3.9600          6.7644          6.7644          6.7644          0.0000          0.0000          0.0000
   3.9800          6.7330          6.7330          6.7330          0.0000          0.0000          0.0000
   4.0000          6.7012          6.7012          6.7012          0.0000          0.0000          0.0000
   4.0200          6.6710          6.6710          6.6710          0.0000          0.0000          0.0000
   4.0400          6.6440          6.6440          6.6440          0.0000          0.0000          0.0000
   4.0600          6.6221          6.6221          6.6221          0.0000          0.0000          0.0000
   4.0800          6.6066          6.6066          6.6066          0.0000          0.0000          0.0000
   4.1000          6.5989          6.5989          6.5989          0.0000          0.0000          0.0000
   4.1200          6.5997          6.5997          6.5997          0.0000          0.0000          0.0000
   4.1400          6.6096          6.6096          6.6096          0.0000          0.0000          0.0000
   4.1600          6.6285          6.6285          6.6285          0.0000          0.0000          0.0000
   4.1800          6.6560          6.6560          6.6560          0.0000          0.0000          0.0000
   4.2000          6.6914          6.6914          6.6914          0.0000          0.0000          0.0000
   4.2200          6.7336          6.7336          6.7336          0.0000          0.0000          0.0000
   4.2400          6.7811          6.7811          6.7811          0.0000          0.0000          0.0000
   4.2600          6.8323          6.8323          6.8323          0.0000          0.0000          0.0000
   4.2800          6.8856          6.8856          6.8856          0.0000          0.0000          0.0000
   4.3000          6.9391          6.9391          6.9391          0.0000          0.0000          0.0000
   4.3200          6.9913          6.9913          6.9913          0.0000          0.0000          0.0000
   4.3400          7.0405          7.0405          7.0405          0.0000          0.0000          0.0000
   4.3600          7.0854          7.0854          7.0854          0.0000          0.0000          0.0000
   4.3800          7.1248          7.1248          7.1248          0.0000          0.0000          0.0000
   4.4000          7.1579          7.1579          7.1579          0.0000          0.0000          0.0000
   4.4200          7.1840          7.1840          7.1840          0.0000          0.0000          0.0000
   4.4400          7.2029          7.2029          7.2029          0.0000          0.0000          0.0000
   4.4600          7.2146          7.2146          7.2146          0.0000          0.0000          0.0000
   4.4800          7.2191          7.2191          7.2191          0.0000          0.0000          0.0000
   4.5000          7.2171          7.2171          7.2171          0.0000          0.0000          0.0000
   4.5200          7.2089          7.2089          7.2089          0.0000          0.0000          0.0000
   4.5400          7.1954          7.1954          7.1954          0.0000          0.0000          0.0000
   4.5600          7.1772          7.1772          7.1772          0.0000          0.0000          0.0000
   4.5800          7.1553          7.1553          7.1553          0.0000          0.0000          0.0000
   4.6000          7.1302          7.1302          7.1302          0.0000          0.0000          0.0000
   4.6200          7.1028          7.1028          7.1028          0.0000          0.0000          0.0000
   4.6400          7.0735          7.0735          7.0735          0.0000          0.0000          0.0000
   4.6600          7.0430          7.0430          7.0430          0.0000          0.0000          0.0000
   4.6800          7.0118          7.0118          7.0118          0.0000          0.0000          0.0000
   4.7000          6.9802          6.9802          6.9802          0.0000          0.0000          0.0000
   4.7200          6.9486          6.9486          6.9486          0.0000          0.0000          0.0000
   4.7400          6.9176          6.9176          6.9176          0.0000          0.0000          0.0000
   4.7600          6.8876          6.8876          6.8876          0.0000          0.0000          0.0000
   4.7800          6.8591          6.8591          6.8591          0.0000          0.0000          0.0000
   4.8000          6.8327          6.8327          6.8327          0.0000          0.0000          0.0000
   4.8200          6.8092          6.8092          6.8092          0.0000          0.0000          0.0000
   4.8400          6.7892          6.7892          6.7892          0.0000          0.0000          0.0000
   4.8600          6.7735          6.7735          6.7735          0.0000          0.0000          0.0000
   4.8800          6.7626          6.7626          6.7626          0.0000          0.0000          0.0000
   4.9000          6.7570          6.7570          6.7570          0.0000          0.0000          0.0000
   4.9200          6.7573          6.7573          6.7573          0.0000          0.0000          0.0000
   4.9400          6.7634          6.7634          6.7634          0.0000          0.0000          0.0000
   4.9600          6.7753          6.7753          6.7753          0.0000          0.0000          0.0000
   4.9800          6.7927          6.7927          6.7927          0.0000          0.0000          0.0000
   5.0000          6.8150          6.8150          6.8150          0.0000          0.0000          0.0000
   5.0200          6.8414          6.8414          6.8414          0.0000          0.0000          0.0000
   5.0400          6.8708          6.8708          6.8708          0.0000          0.0000          0.0000
   5.0600          6.9021          6.9021          6.9021          0.0000          0.0000          0.0000
   5.0800          6.9341          6.9341          6.9341          0.0000          0.0000          0.0000
   5.1000          6.9656          6.9656          6.9656          0.0000          0.0000          0.0000
   5.1200          6.9953          6.9953          6.9953          0.0000          0.0000          0.0000
   5.1400          7.0220          7.0220          7.0220          0.0000          0.0000          0.0000
   5.1600          7.0448          7.0448          7.0448          0.0000          0.0000          0.0000
   5.1800          7.0629          7.0629          7.0629          0.0000          0.0000          0.0000
   5.2000          7.0754          7.0754          7.0754          0.0000          0.0000          0.0000
   5.2200          7.0820          7.0820          7.0820          0.0000          0.0000          0.0000
   5.2400          7.0824          7.0824          7.0824          0.0000          0.0000          0.0000
   5.2600          7.0763          7.0763          7.0763          0.0000          0.0000          0.0000
   5.2800          7.0638          7.0638          7.0638          0.0000          0.0000          0.0000
   5.3000          7.0450          7.0450          7.0450          0.0000          0.0000          0.0000
   5.3200          7.0202          7.0202          7.0202          0.0000          0.0000          0.0000
   5.3400          6.9898          6.9898          6.9898          0.0000          0.0000          0.0000
   5.3600          6.9542          6.9542          6.9542          0.0000          0.0000          0.0000
   5.3800          6.9139          6.9139          6.9139          0.0000          0.0000          0.0000
   5.4000          6.8695          6.8695          6.8695          0.0000          0.0000          0.0000
   5.4200          6.8217          6.8217          6.8217          0.0000          0.0000          0.0000
   5.4400          6.7711          6.7711          6.7711          0.0000          0.0000          0.0000
   5.4600          6.7185          6.7185          6.7185          0.0000          0.0000          0.0000
   5.4800          6.6645          6.6645          6.6645          0.0000          0.0000          0.0000
   5.5000          6.6100          6.6100          6.6100          0.0000          0.0000          0.0000
   5.5200          6.5557          6.5557          6.5557          0.0000          0.0000          0.0000
   5.5400          6.5023          6.5023          6.5023          0.0000          0.0000          0.0000
   5.5600          6.4507          6.4507          6.4507          0.0000          0.0000          0.0000
   5.5800          6.4016          6.4016          6.4016          0.0000          0.0000          0.0000
   5.6000          6.3557          6.3557          6.3557          0.0000          0.0000          0.0000
   5.6200          6.3137          6.3137          6.3137          0.0000          0.0000          0.0000
   5.6400          6.2763          6.2763          6.2763          0.0000          0.0000          0.0000
   5.6600          6.2442          6.2442          6.2442          0.0000          0.0000          0.0000
   5.6800          6.2177          6.2177          6.2177          0.0000          0.0000          0.0000
   5.7000          6.1973          6.1973          6.1973          0.0000          0.0000          0.0000
   5.7200          6.1833          6.1833          6.1833          0.0000          0.0000          0.0000
   5.7400          6.1757          6.1757          6.1757          0.0000          0.0000          0.0000
   5.7600          6.1746          6.1746          6.1746          0.0000          0.0000          0.0000
   5.7800          6.1798          6.1798          6.1798          0.0000          0.0000          0.0000
   5.8000          6.1907          6.1907          6.1907          0.0000          0.0000          0.0000
   5.8200          6.2069          6.2069          6.2069          0.0000          0.0000          0.0000
   5.8400          6.2276          6.2276          6.2276          0.0000          0.0000          0.0000
   5.8600          6.2520          6.2520          6.2520          0.0000          0.0000          0.0000
   5.8800          6.2790          6.2790          6.2790          0.0000          0.0000          0.0000
   5.9000          6.3077          6.3077          6.3077          0.0000          0.0000          0.0000
   5.9200          6.3370          6.3370          6.3370          0.0000          0.0000          0.0000
   5.9400          6.3660          6.3660          6.3660          0.0000          0.0000          0.0000
   5.9600          6.3938          6.3938          6.3938          0.0000          0.0000          0.0000
   5.9800          6.4197          6.4197          6.4197          0.0000          0.0000          0.0000
   6.0000          6.4432          6.4432          6.4432          0.0000          0.0000          0.0000
   6.0200          6.4640          6.4640          6.4640          0.0000          0.0000          0.0000
   6.0400          6.4820          6.4820          6.4820          0.0000          0.0000          0.0000
   6.0600          6.4971          6.4971          6.4971          0.0000          0.0000          0.0000
   6.0800          6.5097          6.5097          6.5097          0.0000          0.0000          0.0000
   6.1000          6.5201          6.5201          6.5201          0.0000          0.0000          0.0000
   6.1200          6.5285          6.5285          6.5285          0.0000          0.0000          0.0000
   6.1400          6.5354          6.5354          6.5354          0.0000          0.0000          0.0000
   6.1600          6.5411          6.5411          6.5411          0.0000          0.0000          0.0000
   6.1800          6.5459          6.5459          6.5459          0.0000          0.0000          0.0000
   6.2000          6.5500          6.5500          6.5500          0.0000          0.0000          0.0000
   6.2200          6.5533          6.5533          6.5533          0.0000          0.0000          0.0000
   6.2400          6.5558          6.5558          6.5558          0.0000          0.0000          0.0000
   6.2600          6.5574          6.5574          6.5574          0.0000          0.0000          0.0000
   6.2800          6.5579          6.5579          6.5579          0.0000          0.0000          0.0000
   6.3000          6.5569          6.5569          6.5569          0.0000          0.0000          0.0000
   6.3200          6.5542          6.5542          6.5542          0.0000          0.0000          0.0000
   6.3400          6.5496          6.5496          6.5496          0.0000          0.0000          0.0000
   6.3600          6.5428          6.5428          6.5428          0.0000          0.0000          0.0000
   6.3800          6.5336          6.5336          6.5336          0.0000          0.0000          0.0000
   6.4000          6.5219          6.5219          6.5219          0.0000          0.0000          0.0000
   6.4200          6.5076          6.5076          6.5076          0.0000          0.0000          0.0000
   6.4400          6.4909          6.4909          6.4909          0.0000          0.0000          0.0000
   6.4600          6.4717          6.4717          6.4717          0.0000          0.0000          0.0000
   6.4800          6.4501          6.4501          6.4501          0.0000          0.0000          0.0000
   6.5000          6.4264          6.4264          6.4264          0.0000          0.0000          0.0000
   6.5200          6.4008          6.4008          6.4008          0.0000          0.0000          0.0000
   6.5400          6.3735          6.3735          6.3735          0.0000          0.0000          0.0000
   6.5600          6.3448          6.3448          6.3448          0.0000          0.0000          0.0000
   6.5800          6.3150          6.3150          6.3150          0.0000          0.0000          0.0000
   6.6000          6.2845          6.2845          6.2845          0.0000          0.0000          0.0000
   6.6200          6.2537          6.2537          6.2537          0.0000          0.0000          0.0000
   6.6400          6.2229          6.2229          6.2229          0.0000          0.0000          0.0000
   6.6600          6.1925          6.1925          6.1925          0.0000          0.0000          0.0000
   6.6800          6.1630          6.1630          6.1630          0.0000          0.0000          0.0000
   6.7000          6.1347          6.1347          6.1347          0.0000          0.0000          0.0000
   6.7200          6.1078          6.1078          6.1078          0.0000          0.0000          0.0000
   6.7400          6.0828          6.0828          6.0828          0.0000          0.0000          0.0000
   6.7600          6.0599          6.0599          6.0599          0.0000          0.0000          0.0000
   6.7800          6.0391          6.0391          6.0391          0.0000          0.0000          0.0000
   6.8000          6.0207          6.0207          6.0207          0.0000          0.0000          0.0000
   6.8200          6.0047          6.0047          6.0047          0.0000          0.0000          0.0000
   6.8400          5.9910          5.9910          5.9910          0.0000          0.0000          0.0000
   6.8600          5.9797          5.9797          5.9797          0.0000          0.0000          0.0000
   6.8800          5.9708          5.9708          5.9708          0.0000          0.0000          0.0000
   6.9000          5.9640          5.9640          5.9640          0.0000          0.0000          0.0000
   6.9200          5.9594          5.9594          5.9594          0.0000          0.0000          0.0000
   6.9400          5.9568          5.9568          5.9568          0.0000          0.0000          0.0000
   6.9600          5.9560          5.9560          5.9560          0.0000          0.0000          0.0000
   6.9800          5.9571          5.9571          5.9571          0.0000          0.0000          0.0000
   7.0000          5.9597          5.9597          5.9597          0.0000          0.0000          0.0000
   7.0200          5.9638          5.9638          5.9638          0.0000          0.0000          0.0000
   7.0400          5.9690          5.9690          5.9690          0.0000          0.0000          0.0000
   7.0600          5.9752          5.9752          5.9752          0.0000          0.0000          0.0000
   7.0800          5.9821          5.9821          5.9821          0.0000          0.0000          0.0000
   7.1000          5.9892          5.9892          5.9892          0.0000          0.0000          0.0000
   7.1200          5.9961          5.9961          5.9961          0.0000          0.0000          0.0000
   7.1400          6.0024          6.0024          6.0024          0.0000          0.0000          0.0000
   7.1600          6.0076          6.0076          6.0076          0.0000          0.0000          0.0000
   7.1800          6.0113          6.0113          6.0113          0.0000          0.0000          0.0000
   7.2000          6.0130          6.0130          6.0130          0.0000          0.0000          0.0000
   7.2200          6.0121          6.0121          6.0121          0.0000          0.0000          0.0000
   7.2400          6.0084          6.0084          6.0084          0.0000          0.0000          0.0000
   7.2600          6.0014          6.0014          6.0014          0.0000          0.0000          0.0000
   7.2800          5.9909          5.9909          5.9909          0.0000          0.0000          0.0000
   7.3000          5.9768          5.9768          5.9768          0.0000          0.0000          0.0000
   7.3200          5.9590          5.9590          5.9590          0.0000          0.0000          0.0000
   7.3400          5.9375          5.9375          5.9375          0.0000          0.0000          0.0000
   7.3600          5.9125          5.9125          5.9125          0.0000          0.0000          0.0000
   7.3800          5.8842          5.8842          5.8842          0.0000          0.0000          0.0000
   7.4000          5.8528          5.8528          5.8528          0.0000          0.0000          0.0000
   7.4200          5.8189          5.8189          5.8189          0.0000          0.0000          0.0000
   7.4400          5.7826          5.7826          5.7826          0.0000          0.0000          0.0000
   7.4600          5.7444          5.7444          5.7444          0.0000          0.0000          0.0000
   7.4800          5.7047          5.7047          5.7047          0.0000          0.0000          0.0000
   7.5000          5.6637          5.6637          5.6637          0.0000          0.0000          0.0000
   7.5200          5.6218          5.6218          5.6218          0.0000          0.0000          0.0000
   7.5400          5.5793          5.5793          5.5793          0.0000          0.0000          0.0000
   7.5600          5.5364          5.5364          5.5364          0.0000          0.0000          0.0000
   7.5800          5.4933          5.4933          5.4933          0.0000          0.0000          0.0000
   7.6000          5.4502          5.4502          5.4502          0.0000          0.0000          0.0000
   7.6200          5.4074          5.4074          5.4074          0.0000          0.0000          0.0000
   7.6400          5.3652          5.3652          5.3652          0.0000          0.0000          0.0000
   7.6600          5.3238          5.3238          5.3238          0.0000          0.0000          0.0000
   7.6800          5.2836          5.2836          5.2836          0.0000          0.0000          0.0000
   7.7000          5.2448          5.2448          5.2448          0.0000          0.0000          0.0000
   7.7200          5.2079          5.2079          5.2079          0.0000          0.0000          0.0000
   7.7400          5.1733          5.1733          5.1733          0.0000          0.0000          0.0000
   7.7600          5.1412          5.1412          5.1412          0.0000          0.0000          0.0000
   7.7800          5.1119          5.1119          5.1119          0.0000          0.0000          0.0000
   7.8000          5.0856          5.0856          5.0856          0.0000          0.0000          0.0000
   7.8200          5.0624          5.0624          5.0624          0.0000          0.0000          0.0000
   7.8400          5.0423          5.0423          5.0423          0.0000          0.0000          0.0000
   7.8600          5.0252          5.0252          5.0252          0.0000          0.0000          0.0000
   7.8800          5.0108          5.0108          5.0108          0.0000          0.0000          0.0000
   7.9000          4.9987          4.9987          4.9987          0.0000          0.0000          0.0000
   7.9200          4.9887          4.9887          4.9887          0.0000          0.0000          0.0000
   7.9400          4.9802          4.9802          4.9802          0.0000          0.0000          0.0000
   7.9600          4.9727          4.9727          4.9727          0.0000          0.0000          0.0000
   7.9800          4.9657          4.9657          4.9657          0.0000          0.0000          0.0000
   8.0000          4.9588          4.9588          4.9588          0.0000          0.0000          0.0000
   8.0200          4.9515          4.9515          4.9515          0.0000          0.0000          0.0000
   8.0400          4.9435          4.9435          4.9435          0.0000          0.0000          0.0000
   8.0600          4.9345          4.9345          4.9345          0.0000          0.0000          0.0000
   8.0800          4.9245          4.9245          4.9245          0.0000          0.0000          0.0000
   8.1000          4.9133          4.9133          4.9133          0.0000          0.0000          0.0000
   8.1200          4.9008          4.9008          4.9008          0.0000          0.0000          0.0000
   8.1400          4.8873          4.8873          4.8873          0.0000          0.0000          0.0000
   8.1600          4.8728          4.8728          4.8728          0.0000          0.0000          0.0000
   8.1800          4.8575          4.8575          4.8575          0.0000          0.0000          0.0000
   8.2000          4.8415          4.8415          4.8415          0.0000          0.0000          0.0000
   8.2200          4.8250          4.8250          4.8250          0.0000          0.0000          0.0000
   8.2400          4.8082          4.8082          4.8082          0.0000          0.0000          0.0000
   8.2600          4.7911          4.7911          4.7911          0.0000          0.0000          0.0000
   8.2800          4.7737          4.7737          4.7737          0.0000          0.0000          0.0000
   8.3000          4.7563          4.7563          4.7563          0.0000          0.0000          0.0000
   8.3200          4.7386          4.7386          4.7386          0.0000          0.0000          0.0000
   8.3400          4.7208          4.7208          4.7208          0.0000          0.0000          0.0000
   8.3600          4.7027          4.7027          4.7027          0.0000          0.0000          0.0000
   8.3800          4.6844          4.6844          4.6844          0.0000          0.0000          0.0000
   8.4000          4.6657          4.6657          4.6657          0.0000          0.0000          0.0000
   8.4200          4.6468          4.6468          4.6468          0.0000          0.0000          0.0000
   8.4400          4.6277          4.6277          4.6277          0.0000          0.0000          0.0000
   8.4600          4.6084          4.6084          4.6084          0.0000          0.0000          0.0000
   8.4800          4.5890          4.5890          4.5890          0.0000          0.0000          0.0000
   8.5000          4.5699          4.5699          4.5699          0.0000          0.0000          0.0000
   8.5200          4.5512          4.5512          4.5512          0.0000          0.0000          0.0000
   8.5400          4.5332          4.5332          4.5332          0.0000          0.0000          0.0000
   8.5600          4.5163          4.5163          4.5163          0.0000          0.0000          0.0000
   8.5800          4.5009          4.5009          4.5009          0.0000          0.0000          0.0000
   8.6000          4.4874          4.4874          4.4874          0.0000          0.0000          0.0000
   8.6200          4.4760          4.4760          4.4760          0.0000          0.0000          0.0000
   8.6400          4.4671          4.4671          4.4671          0.0000          0.0000          0.0000
   8.6600          4.4609          4.4609          4.4609          0.0000          0.0000          0.0000
   8.6800          4.4575          4.4575          4.4575          0.0000          0.0000          0.0000
   8.7000          4.4571          4.4571          4.4571          0.0000          0.0000          0.0000
   8.7200          4.4593          4.4593          4.4593          0.0000          0.0000          0.0000
   8.7400          4.4642          4.4642          4.4642          0.0000          0.0000          0.0000
   8.7600          4.4712          4.4712          4.4712          0.0000          0.0000          0.0000
   8.7800          4.4800          4.4800          4.4800          0.0000          0.0000          0.0000
   8.8000          4.4900          4.4900          4.4900          0.0000          0.0000          0.0000
   8.8200          4.5008          4.5008          4.5008          0.0000          0.0000          0.0000
   8.8400          4.5118          4.5118          4.5118          0.0000          0.0000          0.0000
   8.8600          4.5226          4.5226          4.5226          0.0000          0.0000          0.0000
   8.8800          4.5327          4.5327          4.5327          0.0000          0.0000          0.0000
   8.9000          4.5418          4.5418          4.5418          0.0000          0.0000          0.0000
   8.9200          4.5498          4.5498          4.5498          0.0000          0.0000          0.0000
   8.9400          4.5567          4.5567          4.5567          0.0000          0.0000          0.0000
   8.9600          4.5624          4.5624          4.5624          0.0000          0.0000          0.0000
   8.9800          4.5674          4.5674          4.5674          0.0000          0.0000          0.0000
   9.0000          4.5718          4.5718          4.5718          0.0000          0.0000          0.0000
   9.0200          4.5761          4.5761          4.5761          0.0000          0.0000          0.0000
   9.0400          4.5805          4.5805          4.5805          0.0000          0.0000          0.0000
   9.0600          4.5857          4.5857          4.5857          0.0000          0.0000          0.0000
   9.0800          4.5918          4.5918          4.5918          0.0000          0.0000          0.0000
   9.1000          4.5992          4.5992          4.5992          0.0000          0.0000          0.0000
   9.1200          4.6082          4.6082          4.6082          0.0000          0.0000          0.0000
   9.1400          4.6189          4.6189          4.6189          0.0000          0.0000          0.0000
   9.1600          4.6314          4.6314          4.6314          0.0000          0.0000          0.0000
   9.1800          4.6456          4.6456          4.6456          0.0000          0.0000          0.0000
   9.2000          4.6615          4.6615          4.6615          0.0000          0.0000          0.0000
   9.2200          4.6790          4.6790          4.6790          0.0000          0.0000          0.0000
   9.2400          4.6978          4.6978          4.6978          0.0000          0.0000          0.0000
   9.2600          4.7178          4.7178          4.7178          0.0000          0.0000          0.0000
   9.2800          4.7388          4.7388          4.7388          0.0000          0.0000          0.0000
   9.3000          4.7605          4.7605          4.7605          0.0000          0.0000          0.0000
   9.3200          4.7828          4.7828          4.7828          0.0000          0.0000          0.0000
   9.3400          4.8057          4.8057          4.8057          0.0000          0.0000          0.0000
   9.3600          4.8290          4.8290          4.8290          0.0000          0.0000          0.0000
   9.3800          4.8528          4.8528          4.8528          0.0000          0.0000          0.0000
   9.4000          4.8769          4.8769          4.8769          0.0000          0.0000          0.0000
   9.4200          4.9016          4.9016          4.9016          0.0000          0.0000          0.0000
   9.4400          4.9267          4.9267          4.9267          0.0000          0.0000          0.0000
   9.4600          4.9523          4.9523          4.9523          0.0000          0.0000          0.0000
   9.4800          4.9784          4.9784          4.9784          0.0000          0.0000          0.0000
   9.5000          5.0050          5.0050          5.0050          0.0000          0.0000          0.0000
   9.5200          5.0320          5.0320          5.0320          0.0000          0.0000          0.0000
   9.5400          5.0591          5.0591          5.0591          0.0000          0.0000          0.0000
   9.5600          5.0862          5.0862          5.0862          0.0000          0.0000          0.0000
   9.5800          5.1128          5.1128          5.1128          0.0000          0.0000          0.0000
   9.6000          5.1387          5.1387          5.1387          0.0000          0.0000          0.0000
   9.6200          5.1634          5.1634          5.1634          0.0000          0.0000          0.0000
   9.6400          5.1865          5.1865          5.1865          0.0000          0.0000          0.0000
   9.6600          5.2075          5.2075          5.2075          0.0000          0.0000          0.0000
   9.6800          5.2260          5.2260          5.2260          0.0000          0.0000          0.0000
   9.7000          5.2418          5.2418          5.2418          0.0000          0.0000          0.0000
   9.7200          5.2545          5.2545          5.2545          0.0000          0.0000          0.0000
   9.7400          5.2639          5.2639          5.2639          0.0000          0.0000          0.0000
   9.7600          5.2699          5.2699          5.2699          0.0000          0.0000          0.0000
   9.7800          5.2726          5.2726          5.2726          0.0000          0.0000          0.0000
   9.8000          5.2720          5.2720          5.2720          0.0000          0.0000          0.0000
   9.8200          5.2682          5.2682          5.2682          0.0000          0.0000          0.0000
   9.8400          5.2615          5.2615          5.2615          0.0000          0.0000          0.0000
   9.8600          5.2522          5.2522          5.2522          0.0000          0.0000          0.0000
   9.8800          5.2406          5.2406          5.2406          0.0000          0.0000          0.0000
   9.9000          5.2271          5.2271          5.2271          0.0000          0.0000          0.0000
   9.9200          5.2119          5.2119          5.2119          0.0000          0.0000          0.0000
   9.9400          5.1956          5.1956          5.1956          0.0000          0.0000          0.0000
   9.9600          5.1782          5.1782          5.1782          0.0000          0.0000          0.0000
   9.9800          5.1604          5.1604          5.1604          0.0000          0.0000          0.0000
  10.0000          5.1422          5.1422          5.1422          0.0000          0.0000          0.0000
  10.0200          5.1239          5.1239          5.1239          0.0000          0.0000          0.0000
  10.0400          5.1058          5.1058          5.1058          0.0000          0.0000          0.0000
  10.0600          5.0881          5.0881          5.0881          0.0000          0.0000          0.0000
  10.0800          5.0709          5.0709          5.0709          0.0000          0.0000          0.0000
  10.1000          5.0544          5.0544          5.0544          0.0000          0.0000          0.0000
  10.1200          5.0385          5.0385          5.0385          0.0000          0.0000          0.0000
  10.1400          5.0235          5.0235          5.0235          0.0000          0.0000          0.0000
  10.1600          5.0093          5.0093          5.0093          0.0000          0.0000          0.0000
  10.1800          4.9960          4.9960          4.9960          0.0000          0.0000          0.0000
  10.2000          4.9836          4.9836          4.9836          0.0000          0.0000          0.0000
  10.2200          4.9720          4.9720          4.9720          0.0000          0.0000          0.0000
  10.2400          4.9614          4.9614          4.9614          0.0000          0.0000          0.0000
  10.2600          4.9515          4.9515          4.9515          0.0000          0.0000          0.0000
  10.2800          4.9424          4.9424          4.9424          0.0000          0.0000          0.0000
  10.3000          4.9340          4.9340          4.9340          0.0000          0.0000          0.0000
  10.3200          4.9262          4.9262          4.9262          0.0000          0.0000          0.0000
  10.3400          4.9188          4.9188          4.9188          0.0000          0.0000          0.0000
  10.3600          4.9118          4.9118          4.9118          0.0000          0.0000          0.0000
  10.3800          4.9048          4.9048          4.9048          0.0000          0.0000          0.0000
  10.4000          4.8979          4.8979          4.8979          0.0000          0.0000          0.0000
  10.4200          4.8906          4.8906          4.8906          0.0000          0.0000          0.0000
  10.4400          4.8830          4.8830          4.8830          0.0000          0.0000          0.0000
  10.4600          4.8748          4.8748          4.8748          0.0000          0.0000          0.0000
  10.4800          4.8659          4.8659          4.8659          0.0000          0.0000          0.0000
  10.5000          4.8561          4.8561          4.8561          0.0000          0.0000          0.0000
  10.5200          4.8456          4.8456          4.8456          0.0000          0.0000          0.0000
  10.5400          4.8341          4.8341          4.8341          0.0000          0.0000          0.0000
  10.5600          4.8219          4.8219          4.8219          0.0000          0.0000          0.0000
  10.5800          4.8090          4.8090          4.8090          0.0000          0.0000          0.0000
  10.6000          4.7956          4.7956          4.7956          0.0000          0.0000          0.0000
  10.6200          4.7818          4.7818          4.7818          0.0000          0.0000          0.0000
  10.6400          4.7679          4.7679          4.7679          0.0000          0.0000          0.0000
  10.6600          4.7541          4.7541          4.7541          0.0000          0.0000          0.0000
  10.6800          4.7406          4.7406          4.7406          0.0000          0.0000          0.0000
  10.7000          4.7276          4.7276          4.7276          0.0000          0.0000          0.0000
  10.7200          4.7154          4.7154          4.7154          0.0000          0.0000          0.0000
  10.7400          4.7041          4.7041          4.7041          0.0000          0.0000          0.0000
  10.7600          4.6938          4.6938          4.6938          0.0000          0.0000          0.0000
  10.7800          4.6845          4.6845          4.6845          0.0000          0.0000          0.0000
  10.8000          4.6765          4.6765          4.6765          0.0000          0.0000          0.0000
  10.8200          4.6696          4.6696          4.6696          0.0000          0.0000          0.0000
  10.8400          4.6639          4.6639          4.6639          0.0000          0.0000          0.0000
  10.8600          4.6593          4.6593          4.6593          0.0000          0.0000          0.0000
  10.8800          4.6557          4.6557          4.6557          0.0000          0.0000          0.0000
  10.9000          4.6531          4.6531          4.6531          0.0000          0.0000          0.0000
  10.9200          4.6513          4.6513          4.6513          0.0000          0.0000          0.0000
  10.9400          4.6503          4.6503          4.6503          0.0000          0.0000          0.0000
  10.9600          4.6500          4.6500          4.6500          0.0000          0.0000          0.0000
  10.9800          4.6503          4.6503          4.6503          0.0000          0.0000          0.0000
  11.0000          4.6511          4.6511          4.6511          0.0000          0.0000          0.0000
  11.0200          4.6523          4.6523          4.6523          0.0000          0.0000          0.0000
  11.0400          4.6537          4.6537          4.6537          0.0000          0.0000          0.0000
  11.0600          4.6553          4.6553          4.6553          0.0000          0.0000          0.0000
  11.0800          4.6571          4.6571          4.6571          0.0000          0.0000          0.0000
  11.1000          4.6587          4.6587          4.6587          0.0000          0.0000          0.0000
  11.1200          4.6603          4.6603          4.6603          0.0000          0.0000          0.0000
  11.1400          4.6616          4.6616          4.6616          0.0000          0.0000          0.0000
  11.1600          4.6625          4.6625          4.6625          0.0000          0.0000          0.0000
  11.1800          4.6630          4.6630          4.6630          0.0000          0.0000          0.0000
  11.2000          4.6630          4.6630          4.6630          0.0000          0.0000          0.0000
  11.2200          4.6623          4.6623          4.6623          0.0000          0.0000          0.0000
  11.2400          4.6611          4.6611          4.6611          0.0000          0.0000          0.0000
  11.2600          4.6593          4.6593          4.6593          0.0000          0.0000          0.0000
  11.2800          4.6570          4.6570          4.6570          0.0000          0.0000          0.0000
  11.3000          4.6542          4.6542          4.6542          0.0000          0.0000          0.0000
  11.3200          4.6510          4.6510          4.6510          0.0000          0.0000          0.0000
  11.3400          4.6476          4.6476          4.6476          0.0000          0.0000          0.0000
  11.3600          4.6442          4.6442          4.6442          0.0000          0.0000          0.0000
  11.3800          4.6409          4.6409          4.6409          0.0000          0.0000          0.0000
  11.4000          4.6377          4.6377          4.6377          0.0000          0.0000          0.0000
  11.4200          4.6350          4.6350          4.6350          0.0000          0.0000          0.0000
  11.4400          4.6326          4.6326          4.6326          0.0000          0.0000          0.0000
  11.4600          4.6308          4.6308          4.6308          0.0000          0.0000          0.0000
  11.4800          4.6295          4.6295          4.6295          0.0000          0.0000          0.0000
  11.5000          4.6288          4.6288          4.6288          0.0000          0.0000          0.0000
  11.5200          4.6285          4.6285          4.6285          0.0000          0.0000          0.0000
  11.5400          4.6287          4.6287          4.6287          0.0000          0.0000          0.0000
  11.5600          4.6293          4.6293          4.6293          0.0000          0.0000          0.0000
  11.5800          4.6302          4.6302          4.6302          0.0000          0.0000          0.0000
  11.6000          4.6313          4.6313          4.6313          0.0000          0.0000          0.0000
  11.6200          4.6327          4.6327          4.6327          0.0000          0.0000          0.0000
  11.6400          4.6344          4.6344          4.6344          0.0000          0.0000          0.0000
  11.6600          4.6363          4.6363          4.6363          0.0000          0.0000          0.0000
  11.6800          4.6385          4.6385          4.6385          0.0000          0.0000          0.0000
  11.7000          4.6411          4.6411          4.6411          0.0000          0.0000          0.0000
  11.7200          4.6441          4.6441          4.6441          0.0000          0.0000          0.0000
  11.7400          4.6475          4.6475          4.6475          0.0000          0.0000          0.0000
  11.7600          4.6515          4.6515          4.6515          0.0000          0.0000          0.0000
  11.7800          4.6560          4.6560          4.6560          0.0000          0.0000          0.0000
  11.8000          4.6610          4.6610          4.6610          0.0000          0.0000          0.0000
  11.8200          4.6663          4.6663          4.6663          0.0000          0.0000          0.0000
  11.8400          4.6720          4.6720          4.6720          0.0000          0.0000          0.0000
  11.8600          4.6779          4.6779          4.6779          0.0000          0.0000          0.0000
  11.8800          4.6837          4.6837          4.6837          0.0000          0.0000          0.0000
  11.9000          4.6894          4.6894          4.6894          0.0000          0.0000          0.0000
  11.9200          4.6946          4.6946          4.6946          0.0000          0.0000          0.0000
  11.9400          4.6993          4.6993          4.6993          0.0000          0.0000          0.0000
  11.9600          4.7033          4.7033          4.7033          0.0000          0.0000          0.0000
  11.9800          4.7064          4.7064          4.7064          0.0000          0.0000          0.0000
  12.0000          4.7085          4.7085          4.7085          0.0000          0.0000          0.0000
  12.0200          4.7096          4.7096          4.7096          0.0000          0.0000          0.0000
  12.0400          4.7097          4.7097          4.7097          0.0000          0.0000          0.0000
  12.0600          4.7087          4.7087          4.7087          0.0000          0.0000          0.0000
  12.0800          4.7069          4.7069          4.7069          0.0000          0.0000          0.0000
  12.1000          4.7042          4.7042          4.7042          0.0000          0.0000          0.0000
  12.1200          4.7009          4.7009          4.7009          0.0000          0.0000          0.0000
  12.1400          4.6971          4.6971          4.6971          0.0000          0.0000          0.0000
  12.1600          4.6930          4.6930          4.6930          0.0000          0.0000          0.0000
  12.1800          4.6887          4.6887          4.6887          0.0000          0.0000          0.0000
  12.2000          4.6844          4.6844          4.6844          0.0000          0.0000          0.0000
  12.2200          4.6802          4.6802          4.6802          0.0000          0.0000          0.0000
  12.2400          4.6763          4.6763          4.6763          0.0000          0.0000          0.0000
  12.2600          4.6725          4.6725          4.6725          0.0000          0.0000          0.0000
  12.2800          4.6691          4.6691          4.6691          0.0000          0.0000          0.0000
  12.3000          4.6658          4.6658          4.6658          0.0000          0.0000          0.0000
  12.3200          4.6628          4.6628          4.6628          0.0000          0.0000          0.0000
  12.3400          4.6599          4.6599          4.6599          0.0000          0.0000          0.0000
  12.3600          4.6570          4.6570          4.6570          0.0000          0.0000          0.0000
  12.3800          4.6540          4.6540          4.6540          0.0000          0.0000          0.0000
  12.4000          4.6509          4.6509          4.6509          0.0000          0.0000          0.0000
  12.4200          4.6474          4.6474          4.6474          0.0000          0.0000          0.0000
  12.4400          4.6437          4.6437          4.6437          0.0000          0.0000          0.0000
  12.4600          4.6396          4.6396          4.6396          0.0000          0.0000          0.0000
  12.4800          4.6351          4.6351          4.6351          0.0000          0.0000          0.0000
  12.5000          4.6304          4.6304          4.6304          0.0000          0.0000          0.0000
  12.5200          4.6255          4.6255          4.6255          0.0000          0.0000          0.0000
  12.5400          4.6206          4.6206          4.6206          0.0000          0.0000          0.0000
  12.5600          4.6158          4.6158          4.6158          0.0000          0.0000          0.0000
  12.5800          4.6113          4.6113          4.6113          0.0000          0.0000          0.0000
  12.6000          4.6074          4.6074          4.6074          0.0000          0.0000          0.0000
  12.6200          4.6041          4.6041          4.6041          0.0000          0.0000          0.0000
  12.6400          4.6016          4.6016          4.6016          0.0000          0.0000          0.0000
  12.6600          4.6002          4.6002          4.6002          0.0000          0.0000          0.0000
  12.6800          4.5998          4.5998          4.5998          0.0000          0.0000          0.0000
  12.7000          4.6005          4.6005          4.6005          0.0000          0.0000          0.0000
  12.7200          4.6024          4.6024          4.6024          0.0000          0.0000          0.0000
  12.7400          4.6053          4.6053          4.6053          0.0000          0.0000          0.0000
  12.7600          4.6094          4.6094          4.6094          0.0000          0.0000          0.0000
  12.7800          4.6144          4.6144          4.6144          0.0000          0.0000          0.0000
  12.8000          4.6203          4.6203          4.6203          0.0000          0.0000          0.0000
  12.8200          4.6270          4.6270          4.6270          0.0000          0.0000          0.0000
  12.8400          4.6343          4.6343          4.6343          0.0000          0.0000          0.0000
  12.8600          4.6421          4.6421          4.6421          0.0000          0.0000          0.0000
  12.8800          4.6504          4.6504          4.6504          0.0000          0.0000          0.0000
  12.9000          4.6590          4.6590          4.6590          0.0000          0.0000          0.0000
  12.9200          4.6677          4.6677          4.6677          0.0000          0.0000          0.0000
  12.9400          4.6765          4.6765          4.6765          0.0000          0.0000          0.0000
  12.9600          4.6853          4.6853          4.6853          0.0000          0.0000          0.0000
  12.9800          4.6939          4.6939          4.6939          0.0000          0.0000          0.0000
  13.0000          4.7021          4.7021          4.7021          0.0000          0.0000          0.0000
  13.0200          4.7097          4.7097          4.7097          0.0000          0.0000          0.0000
  13.0400          4.7167          4.7167          4.7167          0.0000          0.0000          0.0000
  13.0600          4.7227          4.7227          4.7227          0.0000          0.0000          0.0000
  13.0800          4.7276          4.7276          4.7276          0.0000          0.0000          0.0000
  13.1000          4.7311          4.7311          4.7311          0.0000          0.0000          0.0000
  13.1200          4.7331          4.7331          4.7331          0.0000          0.0000          0.0000
  13.1400          4.7332          4.7332          4.7332          0.0000          0.0000          0.0000
  13.1600          4.7315          4.7315          4.7315          0.0000          0.0000          0.0000
  13.1800          4.7278          4.7278          4.7278          0.0000          0.0000          0.0000
  13.2000          4.7220          4.7220          4.7220          0.0000          0.0000          0.0000
  13.2200          4.7143          4.7143          4.7143          0.0000          0.0000          0.0000
  13.2400          4.7046          4.7046          4.7046          0.0000          0.0000          0.0000
  13.2600          4.6933          4.6933          4.6933          0.0000          0.0000          0.0000
  13.2800          4.6805          4.6805          4.6805          0.0000          0.0000          0.0000
  13.3000          4.6667          4.6667          4.6667          0.0000          0.0000          0.0000
  13.3200          4.6521          4.6521          4.6521          0.0000          0.0000          0.0000
  13.3400          4.6372          4.6372          4.6372          0.0000          0.0000          0.0000
  13.3600          4.6223          4.6223          4.6223          0.0000          0.0000          0.0000
  13.3800          4.6080          4.6080          4.6080          0.0000          0.0000          0.0000
  13.4000          4.5945          4.5945          4.5945          0.0000          0.0000          0.0000
  13.4200          4.5822          4.5822          4.5822          0.0000          0.0000          0.0000
  13.4400          4.5713          4.5713          4.5713          0.0000          0.0000          0.0000
  13.4600          4.5621          4.5621          4.5621          0.0000          0.0000          0.0000
  13.4800          4.5546          4.5546          4.5546          0.0000          0.0000          0.0000
  13.5000          4.5488          4.5488          4.5488          0.0000          0.0000          0.0000
  13.5200          4.5446          4.5446          4.5446          0.0000          0.0000          0.0000
  13.5400          4.5420          4.5420          4.5420          0.0000          0.0000          0.0000
  13.5600          4.5406          4.5406          4.5406          0.0000          0.0000          0.0000
  13.5800          4.5403          4.5403          4.5403          0.0000          0.0000          0.0000
  13.6000          4.5406          4.5406          4.5406          0.0000          0.0000          0.0000
  13.6200          4.5412          4.5412          4.5412          0.0000          0.0000          0.0000
  13.6400          4.5419          4.5419          4.5419          0.0000          0.0000          0.0000
  13.6600          4.5423          4.5423          4.5423          0.0000          0.0000          0.0000
  13.6800          4.5421          4.5421          4.5421          0.0000          0.0000          0.0000
  13.7000          4.5410          4.5410          4.5410          0.0000          0.0000          0.0000
  13.7200          4.5388          4.5388          4.5388          0.0000          0.0000          0.0000
  13.7400          4.5355          4.5355          4.5355          0.0000          0.0000          0.0000
  13.7600          4.5309          4.5309          4.5309          0.0000          0.0000          0.0000
  13.7800          4.5249          4.5249          4.5249          0.0000          0.0000          0.0000
  13.8000          4.5177          4.5177          4.5177          0.0000          0.0000          0.0000
  13.8200          4.5093          4.5093          4.5093          0.0000          0.0000          0.0000
  13.8400          4.4998          4.4998          4.4998          0.0000          0.0000          0.0000
  13.8600          4.4893          4.4893          4.4893          0.0000          0.0000          0.0000
  13.8800          4.4782          4.4782          4.4782          0.0000          0.0000          0.0000
  13.9000          4.4664          4.4664          4.4664          0.0000          0.0000          0.0000
  13.9200          4.4543          4.4543          4.4543          0.0000          0.0000          0.0000
  13.9400          4.4421          4.4421          4.4421          0.0000          0.0000          0.0000
  13.9600          4.4300          4.4300          4.4300          0.0000          0.0000          0.0000
  13.9800          4.4181          4.4181          4.4181          0.0000          0.0000          0.0000
  14.0000          4.4067          4.4067          4.4067          0.0000          0.0000          0.0000
  14.0200          4.3959          4.3959          4.3959          0.0000          0.0000          0.0000
  14.0400          4.3859          4.3859          4.3859          0.0000          0.0000          0.0000
  14.0600          4.3767          4.3767          4.3767          0.0000          0.0000          0.0000
  14.0800          4.3684          4.3684          4.3684          0.0000          0.0000          0.0000
  14.1000          4.3609          4.3609          4.3609          0.0000          0.0000          0.0000
  14.1200          4.3542          4.3542          4.3542          0.0000          0.0000          0.0000
  14.1400          4.3483          4.3483          4.3483          0.0000          0.0000          0.0000
  14.1600          4.3430          4.3430          4.3430          0.0000          0.0000          0.0000
  14.1800          4.3382          4.3382          4.3382          0.0000          0.0000          0.0000
  14.2000          4.3337          4.3337          4.3337          0.0000          0.0000          0.0000
  14.2200          4.3293          4.3293          4.3293          0.0000          0.0000          0.0000
  14.2400          4.3249          4.3249          4.3249          0.0000          0.0000          0.0000
  14.2600          4.3205          4.3205          4.3205          0.0000          0.0000          0.0000
  14.2800          4.3159          4.3159          4.3159          0.0000          0.0000          0.0000
  14.3000          4.3110          4.3110          4.3110          0.0000          0.0000          0.0000
  14.3200          4.3060          4.3060          4.3060          0.0000          0.0000          0.0000
  14.3400          4.3008          4.3008          4.3008          0.0000          0.0000          0.0000
  14.3600          4.2957          4.2957          4.2957          0.0000          0.0000          0.0000
  14.3800          4.2906          4.2906          4.2906          0.0000          0.0000          0.0000
  14.4000          4.2858          4.2858          4.2858          0.0000          0.0000          0.0000
  14.4200          4.2813          4.2813          4.2813          0.0000          0.0000          0.0000
  14.4400          4.2774          4.2774          4.2774          0.0000          0.0000          0.0000
  14.4600          4.2740          4.2740          4.2740          0.0000          0.0000          0.0000
  14.4800          4.2713          4.2713          4.2713          0.0000          0.0000          0.0000
  14.5000          4.2692          4.2692          4.2692          0.0000          0.0000          0.0000
  14.5200          4.2677          4.2677          4.2677          0.0000          0.0000          0.0000
  14.5400          4.2668          4.2668          4.2668          0.0000          0.0000          0.0000
  14.5600          4.2663          4.2663          4.2663          0.0000          0.0000          0.0000
  14.5800          4.2661          4.2661          4.2661          0.0000          0.0000          0.0000
  14.6000          4.2661          4.2661          4.2661          0.0000          0.0000          0.0000
  14.6200          4.2661          4.2661          4.2661          0.0000          0.0000          0.0000
  14.6400          4.2661          4.2661          4.2661          0.0000          0.0000          0.0000
  14.6600          4.2660          4.2660          4.2660          0.0000          0.0000          0.0000
  14.6800          4.2656          4.2656          4.2656          0.0000          0.0000          0.0000
  14.7000          4.2649          4.2649          4.2649          0.0000          0.0000          0.0000
  14.7200          4.2639          4.2639          4.2639          0.0000          0.0000          0.0000
  14.7400          4.2626          4.2626          4.2626          0.0000          0.0000          0.0000
  14.7600          4.2609          4.2609          4.2609          0.0000          0.0000          0.0000
  14.7800          4.2588          4.2588          4.2588          0.0000          0.0000          0.0000
  14.8000          4.2563          4.2563          4.2563          0.0000          0.0000          0.0000
  14.8200          4.2535          4.2535          4.2535          0.0000          0.0000          0.0000
  14.8400          4.2504          4.2504          4.2504          0.0000          0.0000          0.0000
  14.8600          4.2470          4.2470          4.2470          0.0000          0.0000          0.0000
  14.8800          4.2433          4.2433          4.2433          0.0000          0.0000          0.0000
  14.9000          4.2393          4.2393          4.2393          0.0000          0.0000          0.0000
  14.9200          4.2352          4.2352          4.2352          0.0000          0.0000          0.0000
  14.9400          4.2309          4.2309          4.2309          0.0000          0.0000          0.0000
  14.9600          4.2266          4.2266          4.2266          0.0000          0.0000          0.0000
  14.9800          4.2223          4.2223          4.2223          0.0000          0.0000          0.0000
  15.0000          4.2182          4.2182          4.2182          0.0000          0.0000          0.0000
  15.0200          4.2142          4.2142          4.2142          0.0000          0.0000          0.0000
  15.0400          4.2106          4.2106          4.2106          0.0000          0.0000          0.0000
  15.0600          4.2073          4.2073          4.2073          0.0000          0.0000          0.0000
  15.0800          4.2045          4.2045          4.2045          0.0000          0.0000          0.0000
  15.1000          4.2022          4.2022          4.2022          0.0000          0.0000          0.0000
  15.1200          4.2003          4.2003          4.2003          0.0000          0.0000          0.0000
  15.1400          4.1990          4.1990          4.1990          0.0000          0.0000          0.0000
  15.1600          4.1981          4.1981          4.1981          0.0000          0.0000          0.0000
  15.1800          4.1975          4.1975          4.1975          0.0000          0.0000          0.0000
  15.2000          4.1973          4.1973          4.1973          0.0000          0.0000          0.0000
  15.2200          4.1973          4.1973          4.1973          0.0000          0.0000          0.0000
  15.2400          4.1974          4.1974          4.1974          0.0000          0.0000          0.0000
  15.2600          4.1973          4.1973          4.1973          0.0000          0.0000          0.0000
  15.2800          4.1971          4.1971          4.1971          0.0000          0.0000          0.0000
  15.3000          4.1965          4.1965          4.1965          0.0000          0.0000          0.0000
  15.3200          4.1955          4.1955          4.1955          0.0000          0.0000          0.0000
  15.3400          4.1938          4.1938          4.1938          0.0000          0.0000          0.0000
  15.3600          4.1915          4.1915          4.1915          0.0000          0.0000          0.0000
  15.3800          4.1885          4.1885          4.1885          0.0000          0.0000          0.0000
  15.4000          4.1848          4.1848          4.1848          0.0000          0.0000          0.0000
  15.4200          4.1803          4.1803          4.1803          0.0000          0.0000          0.0000
  15.4400          4.1753          4.1753          4.1753          0.0000          0.0000          0.0000
  15.4600          4.1696          4.1696          4.1696          0.0000          0.0000          0.0000
  15.4800          4.1636          4.1636          4.1636          0.0000          0.0000          0.0000
  15.5000          4.1573          4.1573          4.1573          0.0000          0.0000          0.0000
  15.5200          4.1509          4.1509          4.1509          0.0000          0.0000          0.0000
  15.5400          4.1446          4.1446          4.1446          0.0000          0.0000          0.0000
  15.5600          4.1385          4.1385          4.1385          0.0000          0.0000          0.0000
  15.5800          4.1328          4.1328          4.1328          0.0000          0.0000          0.0000
  15.6000          4.1275          4.1275          4.1275          0.0000          0.0000          0.0000
  15.6200          4.1227          4.1227          4.1227          0.0000          0.0000          0.0000
  15.6400          4.1184          4.1184          4.1184          0.0000          0.0000          0.0000
  15.6600          4.1147          4.1147          4.1147          0.0000          0.0000          0.0000
  15.6800          4.1114          4.1114          4.1114          0.0000          0.0000          0.0000
  15.7000          4.1083          4.1083          4.1083          0.0000          0.0000          0.0000
  15.7200          4.1055          4.1055          4.1055          0.0000          0.0000          0.0000
  15.7400          4.1026          4.1026          4.1026          0.0000          0.0000          0.0000
  15.7600          4.0994          4.0994          4.0994          0.0000          0.0000          0.0000
  15.7800          4.0959          4.0959          4.0959          0.0000          0.0000          0.0000
  15.8000          4.0918          4.0918          4.0918          0.0000          0.0000          0.0000
  15.8200          4.0870          4.0870          4.0870          0.0000          0.0000          0.0000
  15.8400          4.0813          4.0813          4.0813          0.0000          0.0000          0.0000
  15.8600          4.0748          4.0748          4.0748          0.0000          0.0000          0.0000
  15.8800          4.0673          4.0673          4.0673          0.0000          0.0000          0.0000
  15.9000          4.0590          4.0590          4.0590          0.0000          0.0000          0.0000
  15.9200          4.0499          4.0499          4.0499          0.0000          0.0000          0.0000
  15.9400          4.0402          4.0402          4.0402          0.0000          0.0000          0.0000
  15.9600          4.0300          4.0300          4.0300          0.0000          0.0000          0.0000
  15.9800          4.0194          4.0194          4.0194          0.0000          0.0000          0.0000
  16.0000          4.0088          4.0088          4.0088          0.0000          0.0000          0.0000
  16.0200          3.9982          3.9982          3.9982          0.0000          0.0000          0.0000
  16.0400          3.9878          3.9878          3.9878          0.0000          0.0000          0.0000
  16.0600          3.9779          3.9779          3.9779          0.0000          0.0000          0.0000
  16.0800          3.9685          3.9685          3.9685          0.0000          0.0000          0.0000
  16.1000          3.9599          3.9599          3.9599          0.0000          0.0000          0.0000
  16.1200          3.9519          3.9519          3.9519          0.0000          0.0000          0.0000
  16.1400          3.9449          3.9449          3.9449          0.0000          0.0000          0.0000
  16.1600          3.9387          3.9387          3.9387          0.0000          0.0000          0.0000
  16.1800          3.9333          3.9333          3.9333          0.0000          0.0000          0.0000
  16.2000          3.9289          3.9289          3.9289          0.0000          0.0000          0.0000
  16.2200          3.9252          3.9252          3.9252          0.0000          0.0000          0.0000
  16.2400          3.9223          3.9223          3.9223          0.0000          0.0000          0.0000
  16.2600          3.9200          3.9200          3.9200          0.0000          0.0000          0.0000
  16.2800          3.9184          3.9184          3.9184          0.0000          0.0000          0.0000
  16.3000          3.9172          3.9172          3.9172          0.0000          0.0000          0.0000
  16.3200          3.9164          3.9164          3.9164          0.0000          0.0000          0.0000
  16.3400          3.9159          3.9159          3.9159          0.0000          0.0000          0.0000
  16.3600          3.9155          3.9155          3.9155          0.0000          0.0000          0.0000
  16.3800          3.9151          3.9151          3.9151          0.0000          0.0000          0.0000
  16.4000          3.9145          3.9145          3.9145          0.0000          0.0000          0.0000
  16.4200          3.9137          3.9137          3.9137          0.0000          0.0000          0.0000
  16.4400          3.9126          3.9126          3.9126          0.0000          0.0000          0.0000
  16.4600          3.9110          3.9110          3.9110          0.0000          0.0000          0.0000
  16.4800          3.9088          3.9088          3.9088          0.0000          0.0000          0.0000
  16.5000          3.9060          3.9060          3.9060          0.0000          0.0000          0.0000
  16.5200          3.9025          3.9025          3.9025          0.0000          0.0000          0.0000
  16.5400          3.8983          3.8983          3.8983          0.0000          0.0000          0.0000
  16.5600          3.8934          3.8934          3.8934          0.0000          0.0000          0.0000
  16.5800          3.8878          3.8878          3.8878          0.0000          0.0000          0.0000
  16.6000          3.8815          3.8815          3.8815          0.0000          0.0000          0.0000
  16.6200          3.8747          3.8747          3.8747          0.0000          0.0000          0.0000
  16.6400          3.8673          3.8673          3.8673          0.0000          0.0000          0.0000
  16.6600          3.8595          3.8595          3.8595          0.0000          0.0000          0.0000
  16.6800          3.8514          3.8514          3.8514          0.0000          0.0000          0.0000
  16.7000          3.8431          3.8431          3.8431          0.0000          0.0000          0.0000
  16.7200          3.8346          3.8346          3.8346          0.0000          0.0000          0.0000
  16.7400          3.8262          3.8262          3.8262          0.0000          0.0000          0.0000
  16.7600          3.8179          3.8179          3.8179          0.0000          0.0000          0.0000
  16.7800          3.8098          3.8098          3.8098          0.0000          0.0000          0.0000
  16.8000          3.8021          3.8021          3.8021          0.0000          0.0000          0.0000
  16.8200          3.7947          3.7947          3.7947          0.0000          0.0000          0.0000
  16.8400          3.7878          3.7878          3.7878          0.0000          0.0000          0.0000
  16.8600          3.7815          3.7815          3.7815          0.0000          0.0000          0.0000
  16.8800          3.7758          3.7758          3.7758          0.0000          0.0000          0.0000
  16.9000          3.7707          3.7707          3.7707          0.0000          0.0000          0.0000
  16.9200          3.7663          3.7663          3.7663          0.0000          0.0000          0.0000
  16.9400          3.7624          3.7624          3.7624          0.0000          0.0000          0.0000
  16.9600          3.7591          3.7591          3.7591          0.0000          0.0000          0.0000
  16.9800          3.7564          3.7564          3.7564          0.0000          0.0000          0.0000
  17.0000          3.7540          3.7540          3.7540          0.0000          0.0000          0.0000
  17.0200          3.7519          3.7519          3.7519          0.0000          0.0000          0.0000
  17.0400          3.7501          3.7501          3.7501          0.0000          0.0000          0.0000
  17.0600          3.7482          3.7482          3.7482          0.0000          0.0000          0.0000
  17.0800          3.7463          3.7463          3.7463          0.0000          0.0000          0.0000
  17.1000          3.7442          3.7442          3.7442          0.0000          0.0000          0.0000
  17.1200          3.7418          3.7418          3.7418          0.0000          0.0000          0.0000
  17.1400          3.7389          3.7389          3.7389          0.0000          0.0000          0.0000
  17.1600          3.7356          3.7356          3.7356          0.0000          0.0000          0.0000
  17.1800          3.7318          3.7318          3.7318          0.0000          0.0000          0.0000
  17.2000          3.7275          3.7275          3.7275          0.0000          0.0000          0.0000
  17.2200          3.7227          3.7227          3.7227          0.0000          0.0000          0.0000
  17.2400          3.7175          3.7175          3.7175          0.0000          0.0000          0.0000
  17.2600          3.7120          3.7120          3.7120          0.0000          0.0000          0.0000
  17.2800          3.7062          3.7062          3.7062          0.0000          0.0000          0.0000
  17.3000          3.7002          3.7002          3.7002          0.0000          0.0000          0.0000
  17.3200          3.6941          3.6941          3.6941          0.0000          0.0000          0.0000
  17.3400          3.6881          3.6881          3.6881          0.0000          0.0000          0.0000
  17.3600          3.6822          3.6822          3.6822          0.0000          0.0000          0.0000
  17.3800          3.6764          3.6764          3.6764          0.0000          0.0000          0.0000
  17.4000          3.6709          3.6709          3.6709          0.0000          0.0000          0.0000
  17.4200          3.6658          3.6658          3.6658          0.0000          0.0000          0.0000
  17.4400          3.6609          3.6609          3.6609          0.0000          0.0000          0.0000
  17.4600          3.6563          3.6563          3.6563          0.0000          0.0000          0.0000
  17.4800          3.6521          3.6521          3.6521          0.0000          0.0000          0.0000
  17.5000          3.6482          3.6482          3.6482          0.0000          0.0000          0.0000
  17.5200          3.6445          3.6445          3.6445          0.0000          0.0000          0.0000
  17.5400          3.6410          3.6410          3.6410          0.0000          0.0000          0.0000
  17.5600          3.6377          3.6377          3.6377          0.0000          0.0000          0.0000
  17.5800          3.6346          3.6346          3.6346          0.0000          0.0000          0.0000
  17.6000          3.6315          3.6315          3.6315          0.0000          0.0000          0.0000
  17.6200          3.6285          3.6285          3.6285          0.0000          0.0000          0.0000
  17.6400          3.6255          3.6255          3.6255          0.0000          0.0000          0.0000
  17.6600          3.6224          3.6224          3.6224          0.0000          0.0000          0.0000
  17.6800          3.6193          3.6193          3.6193          0.0000          0.0000          0.0000
  17.7000          3.6160          3.6160          3.6160          0.0000          0.0000          0.0000
  17.7200          3.6127          3.6127          3.6127          0.0000          0.0000          0.0000
  17.7400          3.6091          3.6091          3.6091          0.0000          0.0000          0.0000
  17.7600          3.6055          3.6055          3.6055          0.0000          0.0000          0.0000
  17.7800          3.6016          3.6016          3.6016          0.0000          0.0000          0.0000
  17.8000          3.5976          3.5976          3.5976          0.0000          0.0000          0.0000
  17.8200          3.5935          3.5935          3.5935          0.0000          0.0000          0.0000
  17.8400          3.5893          3.5893          3.5893          0.0000          0.0000          0.0000
  17.8600          3.5850          3.5850          3.5850          0.0000          0.0000          0.0000
  17.8800          3.5806          3.5806          3.5806          0.0000          0.0000          0.0000
  17.9000          3.5763          3.5763          3.5763          0.0000          0.0000          0.0000
  17.9200          3.5721          3.5721          3.5721          0.0000          0.0000          0.0000
  17.9400          3.5681          3.5681          3.5681          0.0000          0.0000          0.0000
  17.9600          3.5644          3.5644          3.5644          0.0000          0.0000          0.0000
  17.9800          3.5610          3.5610          3.5610          0.0000          0.0000          0.0000
  18.0000          3.5581          3.5581          3.5581          0.0000          0.0000          0.0000
  18.0200          3.5557          3.5557          3.5557          0.0000          0.0000          0.0000
  18.0400          3.5539          3.5539          3.5539          0.0000          0.0000          0.0000
  18.0600          3.5527          3.5527          3.5527          0.0000          0.0000          0.0000
  18.0800          3.5521          3.5521          3.5521          0.0000          0.0000          0.0000
  18.1000          3.5523          3.5523          3.5523          0.0000          0.0000          0.0000
  18.1200          3.5531          3.5531          3.5531          0.0000          0.0000          0.0000
  18.1400          3.5545          3.5545          3.5545          0.0000          0.0000          0.0000
  18.1600          3.5565          3.5565          3.5565          0.0000          0.0000          0.0000
  18.1800          3.5591          3.5591          3.5591          0.0000          0.0000          0.0000
  18.2000          3.5622          3.5622          3.5622          0.0000          0.0000          0.0000
  18.2200          3.5658          3.5658          3.5658          0.0000          0.0000          0.0000
  18.2400          3.5697          3.5697          3.5697          0.0000          0.0000          0.0000
  18.2600          3.5740          3.5740          3.5740          0.0000          0.0000          0.0000
  18.2800          3.5785          3.5785          3.5785          0.0000          0.0000          0.0000
  18.3000          3.5832          3.5832          3.5832          0.0000          0.0000          0.0000
  18.3200          3.5879          3.5879          3.5879          0.0000          0.0000          0.0000
  18.3400          3.5927          3.5927          3.5927          0.0000          0.0000          0.0000
  18.3600          3.5973          3.5973          3.5973          0.0000          0.0000          0.0000
  18.3800          3.6018          3.6018          3.6018          0.0000          0.0000          0.0000
  18.4000          3.6059          3.6059          3.6059          0.0000          0.0000          0.0000
  18.4200          3.6096          3.6096          3.6096          0.0000          0.0000          0.0000
  18.4400          3.6127          3.6127          3.6127          0.0000          0.0000          0.0000
  18.4600          3.6153          3.6153          3.6153          0.0000          0.0000          0.0000
  18.4800          3.6171          3.6171          3.6171          0.0000          0.0000          0.0000
  18.5000          3.6182          3.6182          3.6182          0.0000          0.0000          0.0000
  18.5200          3.6185          3.6185          3.6185          0.0000          0.0000          0.0000
  18.5400          3.6180          3.6180          3.6180          0.0000          0.0000          0.0000
  18.5600          3.6168          3.6168          3.6168          0.0000          0.0000          0.0000
  18.5800          3.6148          3.6148          3.6148          0.0000          0.0000          0.0000
  18.6000          3.6122          3.6122          3.6122          0.0000          0.0000          0.0000
  18.6200          3.6090          3.6090          3.6090          0.0000          0.0000          0.0000
  18.6400          3.6055          3.6055          3.6055          0.0000          0.0000          0.0000
  18.6600          3.6017          3.6017          3.6017          0.0000          0.0000          0.0000
  18.6800          3.5978          3.5978          3.5978          0.0000          0.0000          0.0000
  18.7000          3.5941          3.5941          3.5941          0.0000          0.0000          0.0000
  18.7200          3.5906          3.5906          3.5906          0.0000          0.0000          0.0000
  18.7400          3.5876          3.5876          3.5876          0.0000          0.0000          0.0000
  18.7600          3.5852          3.5852          3.5852          0.0000          0.0000          0.0000
  18.7800          3.5835          3.5835          3.5835          0.0000          0.0000          0.0000
  18.8000          3.5828          3.5828          3.5828          0.0000          0.0000          0.0000
  18.8200          3.5830          3.5830          3.5830          0.0000          0.0000          0.0000
  18.8400          3.5842          3.5842          3.5842          0.0000          0.0000          0.0000
  18.8600          3.5865          3.5865          3.5865          0.0000          0.0000          0.0000
  18.8800          3.5898          3.5898          3.5898          0.0000          0.0000          0.0000
  18.9000          3.5940          3.5940          3.5940          0.0000          0.0000          0.0000
  18.9200          3.5992          3.5992          3.5992          0.0000          0.0000          0.0000
  18.9400          3.6053          3.6053          3.6053          0.0000          0.0000          0.0000
  18.9600          3.6120          3.6120          3.6120          0.0000          0.0000          0.0000
  18.9800          3.6192          3.6192          3.6192          0.0000          0.0000          0.0000
  19.0000          3.6269          3.6269          3.6269          0.0000          0.0000          0.0000
  19.0200          3.6349          3.6349          3.6349          0.0000          0.0000          0.0000
  19.0400          3.6431          3.6431          3.6431          0.0000          0.0000          0.0000
  19.0600          3.6513          3.6513          3.6513          0.0000          0.0000          0.0000
  19.0800          3.6595          3.6595          3.6595          0.0000          0.0000          0.0000
  19.1000          3.6676          3.6676          3.6676          0.0000          0.0000          0.0000
  19.1200          3.6755          3.6755          3.6755          0.0000          0.0000          0.0000
  19.1400          3.6832          3.6832          3.6832          0.0000          0.0000          0.0000
  19.1600          3.6906          3.6906          3.6906          0.0000          0.0000          0.0000
  19.1800          3.6977          3.6977          3.6977          0.0000          0.0000          0.0000
  19.2000          3.7045          3.7045          3.7045          0.0000          0.0000          0.0000
  19.2200          3.7109          3.7109          3.7109          0.0000          0.0000          0.0000
  19.2400          3.7168          3.7168          3.7168          0.0000          0.0000          0.0000
  19.2600          3.7223          3.7223          3.7223          0.0000          0.0000          0.0000
  19.2800          3.7273          3.7273          3.7273          0.0000          0.0000          0.0000
  19.3000          3.7317          3.7317          3.7317          0.0000          0.0000          0.0000
  19.3200          3.7355          3.7355          3.7355          0.0000          0.0000          0.0000
  19.3400          3.7387          3.7387          3.7387          0.0000          0.0000          0.0000
  19.3600          3.7412          3.7412          3.7412          0.0000          0.0000          0.0000
  19.3800          3.7431          3.7431          3.7431          0.0000          0.0000          0.0000
  19.4000          3.7444          3.7444          3.7444          0.0000          0.0000          0.0000
  19.4200          3.7452          3.7452          3.7452          0.0000          0.0000          0.0000
  19.4400          3.7456          3.7456          3.7456          0.0000          0.0000          0.0000
  19.4600          3.7458          3.7458          3.7458          0.0000          0.0000          0.0000
  19.4800          3.7458          3.7458          3.7458          0.0000          0.0000          0.0000
  19.5000          3.7459          3.7459          3.7459          0.0000          0.0000          0.0000
  19.5200          3.7464          3.7464          3.7464          0.0000          0.0000          0.0000
  19.5400          3.7473          3.7473          3.7473          0.0000          0.0000          0.0000
  19.5600          3.7488          3.7488          3.7488          0.0000          0.0000          0.0000
  19.5800          3.7513          3.7513          3.7513          0.0000          0.0000          0.0000
  19.6000          3.7546          3.7546          3.7546          0.0000          0.0000          0.0000
  19.6200          3.7591          3.7591          3.7591          0.0000          0.0000          0.0000
  19.6400          3.7647          3.7647          3.7647          0.0000          0.0000          0.0000
  19.6600          3.7714          3.7714          3.7714          0.0000          0.0000          0.0000
  19.6800          3.7792          3.7792          3.7792          0.0000          0.0000          0.0000
  19.7000          3.7881          3.7881          3.7881          0.0000          0.0000          0.0000
  19.7200          3.7980          3.7980          3.7980          0.0000          0.0000          0.0000
  19.7400          3.8088          3.8088          3.8088          0.0000          0.0000          0.0000
  19.7600          3.8205          3.8205          3.8205          0.0000          0.0000          0.0000
  19.7800          3.8331          3.8331          3.8331          0.0000          0.0000          0.0000
  19.8000          3.8466          3.8466          3.8466          0.0000          0.0000          0.0000
  19.8200          3.8609          3.8609          3.8609          0.0000          0.0000          0.0000
  19.8400          3.8761          3.8761          3.8761          0.0000          0.0000          0.0000
  19.8600          3.8923          3.8923          3.8923          0.0000          0.0000          0.0000
  19.8800          3.9096          3.9096          3.9096          0.0000          0.0000          0.0000
  19.9000          3.9278          3.9278          3.9278          0.0000          0.0000          0.0000
  19.9200          3.9469          3.9469          3.9469          0.0000          0.0000          0.0000
  19.9400          3.9661          3.9661          3.9661          0.0000          0.0000          0.0000
  19.9600          3.9842          3.9842          3.9842          0.0000          0.0000          0.0000
  19.9800          3.9990          3.9990          3.9990          0.0000          0.0000          0.0000
  20.0000          4.0074          4.0074          4.0074          0.0000          0.0000          0.0000
