### linear absorption coefficients(in units of 10^5 cm-1)
   0.0000          0.0000          0.0000          0.0000          0.0000          0.0000          0.0000
   0.0200          0.0001          0.0001          0.0001          0.0000          0.0000          0.0000
   0.0400          0.0003          0.0003          0.0003          0.0000          0.0000          0.0000
   0.0600          0.0006          0.0006          0.0006          0.0000          0.0000          0.0000
   0.0800          0.0009          0.0009          0.0009          0.0000          0.0000          0.0000
   0.1000          0.0013          0.0013          0.0013          0.0000          0.0000          0.0000
   0.1200          0.0017          0.0017          0.0017          0.0000          0.0000          0.0000
   0.1400          0.0020          0.0020          0.0020          0.0000          0.0000          0.0000
   0.1600          0.0023          0.0023          0.0023          0.0000          0.0000          0.0000
   0.1800          0.0026          0.0026          0.0026          0.0000          0.0000          0.0000
   0.2000          0.0027          0.0027          0.0027          0.0000          0.0000          0.0000
   0.2200          0.0029          0.0029          0.0029          0.0000          0.0000          0.0000
   0.2400          0.0031          0.0031          0.0031          0.0000          0.0000          0.0000
   0.2600          0.0032          0.0032          0.0032          0.0000          0.0000          0.0000
   0.2800          0.0034          0.0034          0.0034          0.0000          0.0000          0.0000
   0.3000          0.0036          0.0036          0.0036          0.0000          0.0000          0.0000
   0.3200          0.0038          0.0038          0.0038          0.0000          0.0000          0.0000
   0.3400          0.0040          0.0040          0.0040          0.0000          0.0000          0.0000
   0.3600          0.0043          0.0043          0.0043          0.0000          0.0000          0.0000
   0.3800          0.0046          0.0046          0.0046          0.0000          0.0000          0.0000
   0.4000          0.0049          0.0049          0.0049          0.0000          0.0000          0.0000
   0.4200          0.0052          0.0052          0.0052          0.0000          0.0000          0.0000
   0.4400          0.0056          0.0056          0.0056          0.0000          0.0000          0.0000
   0.4600          0.0060          0.0060          0.0060          0.0000          0.0000          0.0000
   0.4800          0.0065          0.0065          0.0065          0.0000          0.0000          0.0000
   0.5000          0.0069          0.0069          0.0069          0.0000          0.0000          0.0000
   0.5200          0.0074          0.0074          0.0074          0.0000          0.0000          0.0000
   0.5400          0.0079          0.0079          0.0079          0.0000          0.0000          0.0000
   0.5600          0.0085          0.0085          0.0085          0.0000          0.0000          0.0000
   0.5800          0.0090          0.0090          0.0090          0.0000          0.0000          0.0000
   0.6000          0.0096          0.0096          0.0096          0.0000          0.0000          0.0000
   0.6200          0.0102          0.0102          0.0102          0.0000          0.0000          0.0000
   0.6400          0.0109          0.0109          0.0109          0.0000          0.0000          0.0000
   0.6600          0.0115          0.0115          0.0115          0.0000          0.0000          0.0000
   0.6800          0.0122          0.0122          0.0122          0.0000          0.0000          0.0000
   0.7000          0.0130          0.0130          0.0130          0.0000          0.0000          0.0000
   0.7200          0.0137          0.0137          0.0137          0.0000          0.0000          0.0000
   0.7400          0.0145          0.0145          0.0145          0.0000          0.0000          0.0000
   0.7600          0.0153          0.0153          0.0153          0.0000          0.0000          0.0000
   0.7800          0.0161          0.0161          0.0161          0.0000          0.0000          0.0000
   0.8000          0.0170          0.0170          0.0170          0.0000          0.0000          0.0000
   0.8200          0.0179          0.0179          0.0179          0.0000          0.0000          0.0000
   0.8400          0.0188          0.0188          0.0188          0.0000          0.0000          0.0000
   0.8600          0.0198          0.0198          0.0198          0.0000          0.0000          0.0000
   0.8800          0.0208          0.0208          0.0208          0.0000          0.0000          0.0000
   0.9000          0.0219          0.0219          0.0219          0.0000          0.0000          0.0000
   0.9200          0.0229          0.0229          0.0229          0.0000          0.0000          0.0000
   0.9400          0.0240          0.0240          0.0240          0.0000          0.0000          0.0000
   0.9600          0.0252          0.0252          0.0252          0.0000          0.0000          0.0000
   0.9800          0.0264          0.0264          0.0264          0.0000          0.0000          0.0000
   1.0000          0.0276          0.0276          0.0276          0.0000          0.0000          0.0000
   1.0200          0.0289          0.0289          0.0289          0.0000          0.0000          0.0000
   1.0400          0.0302          0.0302          0.0302          0.0000          0.0000          0.0000
   1.0600          0.0315          0.0315          0.0315          0.0000          0.0000          0.0000
   1.0800          0.0329          0.0329          0.0329          0.0000          0.0000          0.0000
   1.1000          0.0344          0.0344          0.0344          0.0000          0.0000          0.0000
   1.1200          0.0359          0.0359          0.0359          0.0000          0.0000          0.0000
   1.1400          0.0374          0.0374          0.0374          0.0000          0.0000          0.0000
   1.1600          0.0390          0.0390          0.0390          0.0000          0.0000          0.0000
   1.1800          0.0406          0.0406          0.0406          0.0000          0.0000          0.0000
   1.2000          0.0423          0.0423          0.0423          0.0000          0.0000          0.0000
   1.2200          0.0441          0.0441          0.0441          0.0000          0.0000          0.0000
   1.2400          0.0459          0.0459          0.0459          0.0000          0.0000          0.0000
   1.2600          0.0477          0.0477          0.0477          0.0000          0.0000          0.0000
   1.2800          0.0496          0.0496          0.0496          0.0000          0.0000          0.0000
   1.3000          0.0516          0.0516          0.0516          0.0000          0.0000          0.0000
   1.3200          0.0537          0.0537          0.0537          0.0000          0.0000          0.0000
   1.3400          0.0558          0.0558          0.0558          0.0000          0.0000          0.0000
   1.3600          0.0580          0.0580          0.0580          0.0000          0.0000          0.0000
   1.3800          0.0603          0.0603          0.0603          0.0000          0.0000          0.0000
   1.4000          0.0626          0.0626          0.0626          0.0000          0.0000          0.0000
   1.4200          0.0650          0.0650          0.0650          0.0000          0.0000          0.0000
   1.4400          0.0675          0.0675          0.0675          0.0000          0.0000          0.0000
   1.4600          0.0701          0.0701          0.0701          0.0000          0.0000          0.0000
   1.4800          0.0728          0.0728          0.0728          0.0000          0.0000          0.0000
   1.5000          0.0755          0.0755          0.0755          0.0000          0.0000          0.0000
   1.5200          0.0784          0.0784          0.0784          0.0000          0.0000          0.0000
   1.5400          0.0814          0.0814          0.0814          0.0000          0.0000          0.0000
   1.5600          0.0845          0.0845          0.0845          0.0000          0.0000          0.0000
   1.5800          0.0876          0.0876          0.0876          0.0000          0.0000          0.0000
   1.6000          0.0909          0.0909          0.0909          0.0000          0.0000          0.0000
   1.6200          0.0944          0.0944          0.0944          0.0000          0.0000          0.0000
   1.6400          0.0979          0.0979          0.0979          0.0000          0.0000          0.0000
   1.6600          0.1016          0.1016          0.1016          0.0000          0.0000          0.0000
   1.6800          0.1055          0.1055          0.1055          0.0000          0.0000          0.0000
   1.7000          0.1094          0.1094          0.1094          0.0000          0.0000          0.0000
   1.7200          0.1136          0.1136          0.1136          0.0000          0.0000          0.0000
   1.7400          0.1179          0.1179          0.1179          0.0000          0.0000          0.0000
   1.7600          0.1224          0.1224          0.1224          0.0000          0.0000          0.0000
   1.7800          0.1271          0.1271          0.1271          0.0000          0.0000          0.0000
   1.8000          0.1319          0.1319          0.1319          0.0000          0.0000          0.0000
   1.8200          0.1370          0.1370          0.1370          0.0000          0.0000          0.0000
   1.8400          0.1423          0.1423          0.1423          0.0000          0.0000          0.0000
   1.8600          0.1479          0.1479          0.1479          0.0000          0.0000          0.0000
   1.8800          0.1537          0.1537          0.1537          0.0000          0.0000          0.0000
   1.9000          0.1597          0.1597          0.1597          0.0000          0.0000          0.0000
   1.9200          0.1661          0.1661          0.1661          0.0000          0.0000          0.0000
   1.9400          0.1727          0.1727          0.1727          0.0000          0.0000          0.0000
   1.9600          0.1797          0.1797          0.1797          0.0000          0.0000          0.0000
   1.9800          0.1871          0.1871          0.1871          0.0000          0.0000          0.0000
   2.0000          0.1948          0.1948          0.1948          0.0000          0.0000          0.0000
   2.0200          0.2030          0.2030          0.2030          0.0000          0.0000          0.0000
   2.0400          0.2116          0.2116          0.2116          0.0000          0.0000          0.0000
   2.0600          0.2207          0.2207          0.2207          0.0000          0.0000          0.0000
   2.0800          0.2303          0.2303          0.2303          0.0000          0.0000          0.0000
   2.1000          0.2406          0.2406          0.2406          0.0000          0.0000          0.0000
   2.1200          0.2514          0.2514          0.2514          0.0000          0.0000          0.0000
   2.1400          0.2630          0.2630          0.2630          0.0000          0.0000          0.0000
   2.1600          0.2753          0.2753          0.2753          0.0000          0.0000          0.0000
   2.1800          0.2886          0.2886          0.2886          0.0000          0.0000          0.0000
   2.2000          0.3027          0.3027          0.3027          0.0000          0.0000          0.0000
   2.2200          0.3180          0.3180          0.3180          0.0000          0.0000          0.0000
   2.2400          0.3345          0.3345          0.3345          0.0000          0.0000          0.0000
   2.2600          0.3523          0.3523          0.3523          0.0000          0.0000          0.0000
   2.2800          0.3717          0.3717          0.3717          0.0000          0.0000          0.0000
   2.3000          0.3930          0.3930          0.3930          0.0000          0.0000          0.0000
   2.3200          0.4163          0.4163          0.4163          0.0000          0.0000          0.0000
   2.3400          0.4421          0.4421          0.4421          0.0000          0.0000          0.0000
   2.3600          0.4708          0.4708          0.4708          0.0000          0.0000          0.0000
   2.3800          0.5028          0.5028          0.5028          0.0000          0.0000          0.0000
   2.4000          0.5388          0.5388          0.5388          0.0000          0.0000          0.0000
   2.4200          0.5796          0.5796          0.5796          0.0000          0.0000          0.0000
   2.4400          0.6261          0.6261          0.6261          0.0000          0.0000          0.0000
   2.4600          0.6792          0.6792          0.6792          0.0000          0.0000          0.0000
   2.4800          0.7401          0.7401          0.7401          0.0000          0.0000          0.0000
   2.5000          0.8101          0.8101          0.8101          0.0000          0.0000          0.0000
   2.5200          0.8905          0.8905          0.8905          0.0000          0.0000          0.0000
   2.5400          0.9827          0.9827          0.9827          0.0000          0.0000          0.0000
   2.5600          1.0882          1.0882          1.0882          0.0000          0.0000          0.0000
   2.5800          1.2082          1.2082          1.2082          0.0000          0.0000          0.0000
   2.6000          1.3441          1.3441          1.3441          0.0000          0.0000          0.0000
   2.6200          1.4969          1.4969          1.4969          0.0000          0.0000          0.0000
   2.6400          1.6673          1.6673          1.6673          0.0000          0.0000          0.0000
   2.6600          1.8554          1.8554          1.8554          0.0000          0.0000          0.0000
   2.6800          2.0606          2.0606          2.0606          0.0000          0.0000          0.0000
   2.7000          2.2817          2.2817          2.2817          0.0000          0.0000          0.0000
   2.7200          2.5163          2.5163          2.5163          0.0000          0.0000          0.0000
   2.7400          2.7613          2.7613          2.7613          0.0000          0.0000          0.0000
   2.7600          3.0128          3.0128          3.0128          0.0000          0.0000          0.0000
   2.7800          3.2665          3.2665          3.2665          0.0000          0.0000          0.0000
   2.8000          3.5182          3.5182          3.5182          0.0000          0.0000          0.0000
   2.8200          3.7640          3.7640          3.7640          0.0000          0.0000          0.0000
   2.8400          4.0007          4.0007          4.0007          0.0000          0.0000          0.0000
   2.8600          4.2259          4.2259          4.2259          0.0000          0.0000          0.0000
   2.8800          4.4380          4.4380          4.4380          0.0000          0.0000          0.0000
   2.9000          4.6363          4.6363          4.6363          0.0000          0.0000          0.0000
   2.9200          4.8209          4.8209          4.8209          0.0000          0.0000          0.0000
   2.9400          4.9924          4.9924          4.9924          0.0000          0.0000          0.0000
   2.9600          5.1520          5.1520          5.1520          0.0000          0.0000          0.0000
   2.9800          5.3014          5.3014          5.3014          0.0000          0.0000          0.0000
   3.0000          5.4427          5.4427          5.4427          0.0000          0.0000          0.0000
   3.0200          5.5785          5.5785          5.5785          0.0000          0.0000          0.0000
   3.0400          5.7117          5.7117          5.7117          0.0000          0.0000          0.0000
   3.0600          5.8453          5.8453          5.8453          0.0000          0.0000          0.0000
   3.0800          5.9819          5.9819          5.9819          0.0000          0.0000          0.0000
   3.1000          6.1233          6.1233          6.1233          0.0000          0.0000          0.0000
   3.1200          6.2705          6.2705          6.2705          0.0000          0.0000          0.0000
   3.1400          6.4228          6.4228          6.4228          0.0000          0.0000          0.0000
   3.1600          6.5786          6.5786          6.5786          0.0000          0.0000          0.0000
   3.1800          6.7348          6.7348          6.7348          0.0000          0.0000          0.0000
   3.2000          6.8882          6.8882          6.8882          0.0000          0.0000          0.0000
   3.2200          7.0357          7.0357          7.0357          0.0000          0.0000          0.0000
   3.2400          7.1750          7.1750          7.1750          0.0000          0.0000          0.0000
   3.2600          7.3060          7.3060          7.3060          0.0000          0.0000          0.0000
   3.2800          7.4305          7.4305          7.4305          0.0000          0.0000          0.0000
   3.3000          7.5523          7.5523          7.5523          0.0000          0.0000          0.0000
   3.3200          7.6767          7.6767          7.6767          0.0000          0.0000          0.0000
   3.3400          7.8098          7.8098          7.8098          0.0000          0.0000          0.0000
   3.3600          7.9574          7.9574          7.9574          0.0000          0.0000          0.0000
   3.3800          8.1240          8.1240          8.1240          0.0000          0.0000          0.0000
   3.4000          8.3131          8.3131          8.3131          0.0000          0.0000          0.0000
   3.4200          8.5265          8.5265          8.5265          0.0000          0.0000          0.0000
   3.4400          8.7653          8.7653          8.7653          0.0000          0.0000          0.0000
   3.4600          9.0299          9.0299          9.0299          0.0000          0.0000          0.0000
   3.4800          9.3206          9.3206          9.3206          0.0000          0.0000          0.0000
   3.5000          9.6382          9.6382          9.6382          0.0000          0.0000          0.0000
   3.5200          9.9835          9.9835          9.9835          0.0000          0.0000          0.0000
   3.5400         10.3577         10.3577         10.3577          0.0000          0.0000          0.0000
   3.5600         10.7620         10.7620         10.7620          0.0000          0.0000          0.0000
   3.5800         11.1975         11.1975         11.1975          0.0000          0.0000          0.0000
   3.6000         11.6647         11.6647         11.6647          0.0000          0.0000          0.0000
   3.6200         12.1630         12.1630         12.1630          0.0000          0.0000          0.0000
   3.6400         12.6905         12.6905         12.6905          0.0000          0.0000          0.0000
   3.6600         13.2434         13.2434         13.2434          0.0000          0.0000          0.0000
   3.6800         13.8161         13.8161         13.8161          0.0000          0.0000          0.0000
   3.7000         14.4008         14.4008         14.4008          0.0000          0.0000          0.0000
   3.7200         14.9881         14.9881         14.9881          0.0000          0.0000          0.0000
   3.7400         15.5675         15.5675         15.5675          0.0000          0.0000          0.0000
   3.7600         16.1277         16.1277         16.1277          0.0000          0.0000          0.0000
   3.7800         16.6577         16.6577         16.6577          0.0000          0.0000          0.0000
   3.8000         17.1469         17.1469         17.1469          0.0000          0.0000          0.0000
   3.8200         17.5864         17.5864         17.5864          0.0000          0.0000          0.0000
   3.8400         17.9694         17.9694         17.9694          0.0000          0.0000          0.0000
   3.8600         18.2920         18.2920         18.2920          0.0000          0.0000          0.0000
   3.8800         18.5534         18.5534         18.5534          0.0000          0.0000          0.0000
   3.9000         18.7565         18.7565         18.7565          0.0000          0.0000          0.0000
   3.9200         18.9070         18.9070         18.9070          0.0000          0.0000          0.0000
   3.9400         19.0130         19.0130         19.0130          0.0000          0.0000          0.0000
   3.9600         19.0836         19.0836         19.0836          0.0000          0.0000          0.0000
   3.9800         19.1268         19.1268         19.1268          0.0000          0.0000          0.0000
   4.0000         19.1487         19.1487         19.1487          0.0000          0.0000          0.0000
   4.0200         19.1519         19.1519         19.1519          0.0000          0.0000          0.0000
   4.0400         19.1357         19.1357         19.1357          0.0000          0.0000          0.0000
   4.0600         19.0966         19.0966         19.0966          0.0000          0.0000          0.0000
   4.0800         19.0297         19.0297         19.0297          0.0000          0.0000          0.0000
   4.1000         18.9301         18.9301         18.9301          0.0000          0.0000          0.0000
   4.1200         18.7952         18.7952         18.7952          0.0000          0.0000          0.0000
   4.1400         18.6259         18.6259         18.6259          0.0000          0.0000          0.0000
   4.1600         18.4273         18.4273         18.4273          0.0000          0.0000          0.0000
   4.1800         18.2091         18.2091         18.2091          0.0000          0.0000          0.0000
   4.2000         17.9844         17.9844         17.9844          0.0000          0.0000          0.0000
   4.2200         17.7688         17.7688         17.7688          0.0000          0.0000          0.0000
   4.2400         17.5775         17.5775         17.5775          0.0000          0.0000          0.0000
   4.2600         17.4237         17.4237         17.4237          0.0000          0.0000          0.0000
   4.2800         17.3166         17.3166         17.3166          0.0000          0.0000          0.0000
   4.3000         17.2601         17.2601         17.2601          0.0000          0.0000          0.0000
   4.3200         17.2530         17.2530         17.2530          0.0000          0.0000          0.0000
   4.3400         17.2896         17.2896         17.2896          0.0000          0.0000          0.0000
   4.3600         17.3609         17.3609         17.3609          0.0000          0.0000          0.0000
   4.3800         17.4563         17.4563         17.4563          0.0000          0.0000          0.0000
   4.4000         17.5647         17.5647         17.5647          0.0000          0.0000          0.0000
   4.4200         17.6761         17.6761         17.6761          0.0000          0.0000          0.0000
   4.4400         17.7817         17.7817         17.7817          0.0000          0.0000          0.0000
   4.4600         17.8748         17.8748         17.8748          0.0000          0.0000          0.0000
   4.4800         17.9510         17.9510         17.9510          0.0000          0.0000          0.0000
   4.5000         18.0077         18.0077         18.0077          0.0000          0.0000          0.0000
   4.5200         18.0439         18.0439         18.0439          0.0000          0.0000          0.0000
   4.5400         18.0605         18.0605         18.0605          0.0000          0.0000          0.0000
   4.5600         18.0593         18.0593         18.0593          0.0000          0.0000          0.0000
   4.5800         18.0429         18.0429         18.0429          0.0000          0.0000          0.0000
   4.6000         18.0143         18.0143         18.0143          0.0000          0.0000          0.0000
   4.6200         17.9771         17.9771         17.9771          0.0000          0.0000          0.0000
   4.6400         17.9347         17.9347         17.9347          0.0000          0.0000          0.0000
   4.6600         17.8912         17.8912         17.8912          0.0000          0.0000          0.0000
   4.6800         17.8505         17.8505         17.8505          0.0000          0.0000          0.0000
   4.7000         17.8170         17.8170         17.8170          0.0000          0.0000          0.0000
   4.7200         17.7956         17.7956         17.7956          0.0000          0.0000          0.0000
   4.7400         17.7907         17.7907         17.7907          0.0000          0.0000          0.0000
   4.7600         17.8065         17.8065         17.8065          0.0000          0.0000          0.0000
   4.7800         17.8456         17.8456         17.8456          0.0000          0.0000          0.0000
   4.8000         17.9089         17.9089         17.9089          0.0000          0.0000          0.0000
   4.8200         17.9950         17.9950         17.9950          0.0000          0.0000          0.0000
   4.8400         18.1002         18.1002         18.1002          0.0000          0.0000          0.0000
   4.8600         18.2186         18.2186         18.2186          0.0000          0.0000          0.0000
   4.8800         18.3428         18.3428         18.3428          0.0000          0.0000          0.0000
   4.9000         18.4648         18.4648         18.4648          0.0000          0.0000          0.0000
   4.9200         18.5759         18.5759         18.5759          0.0000          0.0000          0.0000
   4.9400         18.6682         18.6682         18.6682          0.0000          0.0000          0.0000
   4.9600         18.7345         18.7345         18.7345          0.0000          0.0000          0.0000
   4.9800         18.7695         18.7695         18.7695          0.0000          0.0000          0.0000
   5.0000         18.7698         18.7698         18.7698          0.0000          0.0000          0.0000
   5.0200         18.7345         18.7345         18.7345          0.0000          0.0000          0.0000
   5.0400         18.6653         18.6653         18.6653          0.0000          0.0000          0.0000
   5.0600         18.5665         18.5665         18.5665          0.0000          0.0000          0.0000
   5.0800         18.4445         18.4445         18.4445          0.0000          0.0000          0.0000
   5.1000         18.3072         18.3072         18.3072          0.0000          0.0000          0.0000
   5.1200         18.1632         18.1632         18.1632          0.0000          0.0000          0.0000
   5.1400         18.0211         18.0211         18.0211          0.0000          0.0000          0.0000
   5.1600         17.8889         17.8889         17.8889          0.0000          0.0000          0.0000
   5.1800         17.7735         17.7735         17.7735          0.0000          0.0000          0.0000
   5.2000         17.6804         17.6804         17.6804          0.0000          0.0000          0.0000
   5.2200         17.6138         17.6138         17.6138          0.0000          0.0000          0.0000
   5.2400         17.5762         17.5762         17.5762          0.0000          0.0000          0.0000
   5.2600         17.5684         17.5684         17.5684          0.0000          0.0000          0.0000
   5.2800         17.5898         17.5898         17.5898          0.0000          0.0000          0.0000
   5.3000         17.6380         17.6380         17.6380          0.0000          0.0000          0.0000
   5.3200         17.7091         17.7091         17.7091          0.0000          0.0000          0.0000
   5.3400         17.7981         17.7981         17.7981          0.0000          0.0000          0.0000
   5.3600         17.8989         17.8989         17.8989          0.0000          0.0000          0.0000
   5.3800         18.0049         18.0049         18.0049          0.0000          0.0000          0.0000
   5.4000         18.1095         18.1095         18.1095          0.0000          0.0000          0.0000
   5.4200         18.2060         18.2060         18.2060          0.0000          0.0000          0.0000
   5.4400         18.2887         18.2887         18.2887          0.0000          0.0000          0.0000
   5.4600         18.3529         18.3529         18.3529          0.0000          0.0000          0.0000
   5.4800         18.3951         18.3951         18.3951          0.0000          0.0000          0.0000
   5.5000         18.4140         18.4140         18.4140          0.0000          0.0000          0.0000
   5.5200         18.4100         18.4100         18.4100          0.0000          0.0000          0.0000
   5.5400         18.3854         18.3854         18.3854          0.0000          0.0000          0.0000
   5.5600         18.3441         18.3441         18.3441          0.0000          0.0000          0.0000
   5.5800         18.2910         18.2910         18.2910          0.0000          0.0000          0.0000
   5.6000         18.2310         18.2310         18.2310          0.0000          0.0000          0.0000
   5.6200         18.1683         18.1683         18.1683          0.0000          0.0000          0.0000
   5.6400         18.1059         18.1059         18.1059          0.0000          0.0000          0.0000
   5.6600         18.0452         18.0452         18.0452          0.0000          0.0000          0.0000
   5.6800         17.9859         17.9859         17.9859          0.0000          0.0000          0.0000
   5.7000         17.9269         17.9269         17.9269          0.0000          0.0000          0.0000
   5.7200         17.8664         17.8664         17.8664          0.0000          0.0000          0.0000
   5.7400         17.8031         17.8031         17.8031          0.0000          0.0000          0.0000
   5.7600         17.7363         17.7363         17.7363          0.0000          0.0000          0.0000
   5.7800         17.6661         17.6661         17.6661          0.0000          0.0000          0.0000
   5.8000         17.5942         17.5942         17.5942          0.0000          0.0000          0.0000
   5.8200         17.5231         17.5231         17.5231          0.0000          0.0000          0.0000
   5.8400         17.4564         17.4564         17.4564          0.0000          0.0000          0.0000
   5.8600         17.3985         17.3985         17.3985          0.0000          0.0000          0.0000
   5.8800         17.3539         17.3539         17.3539          0.0000          0.0000          0.0000
   5.9000         17.3267         17.3267         17.3267          0.0000          0.0000          0.0000
   5.9200         17.3199         17.3199         17.3199          0.0000          0.0000          0.0000
   5.9400         17.3348         17.3348         17.3348          0.0000          0.0000          0.0000
   5.9600         17.3703         17.3703         17.3703          0.0000          0.0000          0.0000
   5.9800         17.4234         17.4234         17.4234          0.0000          0.0000          0.0000
   6.0000         17.4888         17.4888         17.4888          0.0000          0.0000          0.0000
   6.0200         17.5605         17.5605         17.5605          0.0000          0.0000          0.0000
   6.0400         17.6319         17.6319         17.6319          0.0000          0.0000          0.0000
   6.0600         17.6972         17.6972         17.6972          0.0000          0.0000          0.0000
   6.0800         17.7516         17.7516         17.7516          0.0000          0.0000          0.0000
   6.1000         17.7921         17.7921         17.7921          0.0000          0.0000          0.0000
   6.1200         17.8168         17.8168         17.8168          0.0000          0.0000          0.0000
   6.1400         17.8254         17.8254         17.8254          0.0000          0.0000          0.0000
   6.1600         17.8183         17.8183         17.8183          0.0000          0.0000          0.0000
   6.1800         17.7968         17.7968         17.7968          0.0000          0.0000          0.0000
   6.2000         17.7620         17.7620         17.7620          0.0000          0.0000          0.0000
   6.2200         17.7153         17.7153         17.7153          0.0000          0.0000          0.0000
   6.2400         17.6577         17.6577         17.6577          0.0000          0.0000          0.0000
   6.2600         17.5905         17.5905         17.5905          0.0000          0.0000          0.0000
   6.2800         17.5146         17.5146         17.5146          0.0000          0.0000          0.0000
   6.3000         17.4313         17.4313         17.4313          0.0000          0.0000          0.0000
   6.3200         17.3421         17.3421         17.3421          0.0000          0.0000          0.0000
   6.3400         17.2490         17.2490         17.2490          0.0000          0.0000          0.0000
   6.3600         17.1542         17.1542         17.1542          0.0000          0.0000          0.0000
   6.3800         17.0602         17.0602         17.0602          0.0000          0.0000          0.0000
   6.4000         16.9697         16.9697         16.9697          0.0000          0.0000          0.0000
   6.4200         16.8853         16.8853         16.8853          0.0000          0.0000          0.0000
   6.4400         16.8095         16.8095         16.8095          0.0000          0.0000          0.0000
   6.4600         16.7448         16.7448         16.7448          0.0000          0.0000          0.0000
   6.4800         16.6930         16.6930         16.6930          0.0000          0.0000          0.0000
   6.5000         16.6556         16.6556         16.6556          0.0000          0.0000          0.0000
   6.5200         16.6331         16.6331         16.6331          0.0000          0.0000          0.0000
   6.5400         16.6253         16.6253         16.6253          0.0000          0.0000          0.0000
   6.5600         16.6307         16.6307         16.6307          0.0000          0.0000          0.0000
   6.5800         16.6474         16.6474         16.6474          0.0000          0.0000          0.0000
   6.6000         16.6725         16.6725         16.6725          0.0000          0.0000          0.0000
   6.6200         16.7030         16.7030         16.7030          0.0000          0.0000          0.0000
   6.6400         16.7358         16.7358         16.7358          0.0000          0.0000          0.0000
   6.6600         16.7683         16.7683         16.7683          0.0000          0.0000          0.0000
   6.6800         16.7978         16.7978         16.7978          0.0000          0.0000          0.0000
   6.7000         16.8225         16.8225         16.8225          0.0000          0.0000          0.0000
   6.7200         16.8405         16.8405         16.8405          0.0000          0.0000          0.0000
   6.7400         16.8507         16.8507         16.8507          0.0000          0.0000          0.0000
   6.7600         16.8521         16.8521         16.8521          0.0000          0.0000          0.0000
   6.7800         16.8445         16.8445         16.8445          0.0000          0.0000          0.0000
   6.8000         16.8280         16.8280         16.8280          0.0000          0.0000          0.0000
   6.8200         16.8033         16.8033         16.8033          0.0000          0.0000          0.0000
   6.8400         16.7716         16.7716         16.7716          0.0000          0.0000          0.0000
   6.8600         16.7342         16.7342         16.7342          0.0000          0.0000          0.0000
   6.8800         16.6927         16.6927         16.6927          0.0000          0.0000          0.0000
   6.9000         16.6487         16.6487         16.6487          0.0000          0.0000          0.0000
   6.9200         16.6039         16.6039         16.6039          0.0000          0.0000          0.0000
   6.9400         16.5599         16.5599         16.5599          0.0000          0.0000          0.0000
   6.9600         16.5178         16.5178         16.5178          0.0000          0.0000          0.0000
   6.9800         16.4786         16.4786         16.4786          0.0000          0.0000          0.0000
   7.0000         16.4429         16.4429         16.4429          0.0000          0.0000          0.0000
   7.0200         16.4107         16.4107         16.4107          0.0000          0.0000          0.0000
   7.0400         16.3816         16.3816         16.3816          0.0000          0.0000          0.0000
   7.0600         16.3554         16.3554         16.3554          0.0000          0.0000          0.0000
   7.0800         16.3319         16.3319         16.3319          0.0000          0.0000          0.0000
   7.1000         16.3114         16.3114         16.3114          0.0000          0.0000          0.0000
   7.1200         16.2950         16.2950         16.2950          0.0000          0.0000          0.0000
   7.1400         16.2842         16.2842         16.2842          0.0000          0.0000          0.0000
   7.1600         16.2808         16.2808         16.2808          0.0000          0.0000          0.0000
   7.1800         16.2867         16.2867         16.2867          0.0000          0.0000          0.0000
   7.2000         16.3030         16.3030         16.3030          0.0000          0.0000          0.0000
   7.2200         16.3298         16.3298         16.3298          0.0000          0.0000          0.0000
   7.2400         16.3664         16.3664         16.3664          0.0000          0.0000          0.0000
   7.2600         16.4108         16.4108         16.4108          0.0000          0.0000          0.0000
   7.2800         16.4605         16.4605         16.4605          0.0000          0.0000          0.0000
   7.3000         16.5124         16.5124         16.5124          0.0000          0.0000          0.0000
   7.3200         16.5631         16.5631         16.5631          0.0000          0.0000          0.0000
   7.3400         16.6095         16.6095         16.6095          0.0000          0.0000          0.0000
   7.3600         16.6487         16.6487         16.6487          0.0000          0.0000          0.0000
   7.3800         16.6787         16.6787         16.6787          0.0000          0.0000          0.0000
   7.4000         16.6981         16.6981         16.6981          0.0000          0.0000          0.0000
   7.4200         16.7063         16.7063         16.7063          0.0000          0.0000          0.0000
   7.4400         16.7034         16.7034         16.7034          0.0000          0.0000          0.0000
   7.4600         16.6903         16.6903         16.6903          0.0000          0.0000          0.0000
   7.4800         16.6681         16.6681         16.6681          0.0000          0.0000          0.0000
   7.5000         16.6382         16.6382         16.6382          0.0000          0.0000          0.0000
   7.5200         16.6020         16.6020         16.6020          0.0000          0.0000          0.0000
   7.5400         16.5609         16.5609         16.5609          0.0000          0.0000          0.0000
   7.5600         16.5164         16.5164         16.5164          0.0000          0.0000          0.0000
   7.5800         16.4696         16.4696         16.4696          0.0000          0.0000          0.0000
   7.6000         16.4216         16.4216         16.4216          0.0000          0.0000          0.0000
   7.6200         16.3734         16.3734         16.3734          0.0000          0.0000          0.0000
   7.6400         16.3259         16.3259         16.3259          0.0000          0.0000          0.0000
   7.6600         16.2799         16.2799         16.2799          0.0000          0.0000          0.0000
   7.6800         16.2361         16.2361         16.2361          0.0000          0.0000          0.0000
   7.7000         16.1955         16.1955         16.1955          0.0000          0.0000          0.0000
   7.7200         16.1590         16.1590         16.1590          0.0000          0.0000          0.0000
   7.7400         16.1277         16.1277         16.1277          0.0000          0.0000          0.0000
   7.7600         16.1024         16.1024         16.1024          0.0000          0.0000          0.0000
   7.7800         16.0840         16.0840         16.0840          0.0000          0.0000          0.0000
   7.8000         16.0729         16.0729         16.0729          0.0000          0.0000          0.0000
   7.8200         16.0690         16.0690         16.0690          0.0000          0.0000          0.0000
   7.8400         16.0718         16.0718         16.0718          0.0000          0.0000          0.0000
   7.8600         16.0805         16.0805         16.0805          0.0000          0.0000          0.0000
   7.8800         16.0937         16.0937         16.0937          0.0000          0.0000          0.0000
   7.9000         16.1104         16.1104         16.1104          0.0000          0.0000          0.0000
   7.9200         16.1293         16.1293         16.1293          0.0000          0.0000          0.0000
   7.9400         16.1494         16.1494         16.1494          0.0000          0.0000          0.0000
   7.9600         16.1698         16.1698         16.1698          0.0000          0.0000          0.0000
   7.9800         16.1900         16.1900         16.1900          0.0000          0.0000          0.0000
   8.0000         16.2093         16.2093         16.2093          0.0000          0.0000          0.0000
   8.0200         16.2269         16.2269         16.2269          0.0000          0.0000          0.0000
   8.0400         16.2421         16.2421         16.2421          0.0000          0.0000          0.0000
   8.0600         16.2538         16.2538         16.2538          0.0000          0.0000          0.0000
   8.0800         16.2607         16.2607         16.2607          0.0000          0.0000          0.0000
   8.1000         16.2616         16.2616         16.2616          0.0000          0.0000          0.0000
   8.1200         16.2554         16.2554         16.2554          0.0000          0.0000          0.0000
   8.1400         16.2413         16.2413         16.2413          0.0000          0.0000          0.0000
   8.1600         16.2193         16.2193         16.2193          0.0000          0.0000          0.0000
   8.1800         16.1898         16.1898         16.1898          0.0000          0.0000          0.0000
   8.2000         16.1543         16.1543         16.1543          0.0000          0.0000          0.0000
   8.2200         16.1148         16.1148         16.1148          0.0000          0.0000          0.0000
   8.2400         16.0737         16.0737         16.0737          0.0000          0.0000          0.0000
   8.2600         16.0337         16.0337         16.0337          0.0000          0.0000          0.0000
   8.2800         15.9971         15.9971         15.9971          0.0000          0.0000          0.0000
   8.3000         15.9659         15.9659         15.9659          0.0000          0.0000          0.0000
   8.3200         15.9409         15.9409         15.9409          0.0000          0.0000          0.0000
   8.3400         15.9222         15.9222         15.9222          0.0000          0.0000          0.0000
   8.3600         15.9090         15.9090         15.9090          0.0000          0.0000          0.0000
   8.3800         15.8999         15.8999         15.8999          0.0000          0.0000          0.0000
   8.4000         15.8931         15.8931         15.8931          0.0000          0.0000          0.0000
   8.4200         15.8869         15.8869         15.8869          0.0000          0.0000          0.0000
   8.4400         15.8799         15.8799         15.8799          0.0000          0.0000          0.0000
   8.4600         15.8709         15.8709         15.8709          0.0000          0.0000          0.0000
   8.4800         15.8595         15.8595         15.8595          0.0000          0.0000          0.0000
   8.5000         15.8454         15.8454         15.8454          0.0000          0.0000          0.0000
   8.5200         15.8291         15.8291         15.8291          0.0000          0.0000          0.0000
   8.5400         15.8109         15.8109         15.8109          0.0000          0.0000          0.0000
   8.5600         15.7920         15.7920         15.7920          0.0000          0.0000          0.0000
   8.5800         15.7735         15.7735         15.7735          0.0000          0.0000          0.0000
   8.6000         15.7567         15.7567         15.7567          0.0000          0.0000          0.0000
   8.6200         15.7430         15.7430         15.7430          0.0000          0.0000          0.0000
   8.6400         15.7335         15.7335         15.7335          0.0000          0.0000          0.0000
   8.6600         15.7283         15.7283         15.7283          0.0000          0.0000          0.0000
   8.6800         15.7273         15.7273         15.7273          0.0000          0.0000          0.0000
   8.7000         15.7291         15.7291         15.7291          0.0000          0.0000          0.0000
   8.7200         15.7318         15.7318         15.7318          0.0000          0.0000          0.0000
   8.7400         15.7333         15.7333         15.7333          0.0000          0.0000          0.0000
   8.7600         15.7315         15.7315         15.7315          0.0000          0.0000          0.0000
   8.7800         15.7249         15.7249         15.7249          0.0000          0.0000          0.0000
   8.8000         15.7129         15.7129         15.7129          0.0000          0.0000          0.0000
   8.8200         15.6959         15.6959         15.6959          0.0000          0.0000          0.0000
   8.8400         15.6749         15.6749         15.6749          0.0000          0.0000          0.0000
   8.8600         15.6519         15.6519         15.6519          0.0000          0.0000          0.0000
   8.8800         15.6288         15.6288         15.6288          0.0000          0.0000          0.0000
   8.9000         15.6073         15.6073         15.6073          0.0000          0.0000          0.0000
   8.9200         15.5886         15.5886         15.5886          0.0000          0.0000          0.0000
   8.9400         15.5730         15.5730         15.5730          0.0000          0.0000          0.0000
   8.9600         15.5601         15.5601         15.5601          0.0000          0.0000          0.0000
   8.9800         15.5485         15.5485         15.5485          0.0000          0.0000          0.0000
   9.0000         15.5366         15.5366         15.5366          0.0000          0.0000          0.0000
   9.0200         15.5227         15.5227         15.5227          0.0000          0.0000          0.0000
   9.0400         15.5050         15.5050         15.5050          0.0000          0.0000          0.0000
   9.0600         15.4823         15.4823         15.4823          0.0000          0.0000          0.0000
   9.0800         15.4541         15.4541         15.4541          0.0000          0.0000          0.0000
   9.1000         15.4202         15.4202         15.4202          0.0000          0.0000          0.0000
   9.1200         15.3811         15.3811         15.3811          0.0000          0.0000          0.0000
   9.1400         15.3378         15.3378         15.3378          0.0000          0.0000          0.0000
   9.1600         15.2915         15.2915         15.2915          0.0000          0.0000          0.0000
   9.1800         15.2438         15.2438         15.2438          0.0000          0.0000          0.0000
   9.2000         15.1961         15.1961         15.1961          0.0000          0.0000          0.0000
   9.2200         15.1499         15.1499         15.1499          0.0000          0.0000          0.0000
   9.2400         15.1069         15.1069         15.1069          0.0000          0.0000          0.0000
   9.2600         15.0685         15.0685         15.0685          0.0000          0.0000          0.0000
   9.2800         15.0363         15.0363         15.0363          0.0000          0.0000          0.0000
   9.3000         15.0112         15.0112         15.0112          0.0000          0.0000          0.0000
   9.3200         14.9940         14.9940         14.9940          0.0000          0.0000          0.0000
   9.3400         14.9848         14.9848         14.9848          0.0000          0.0000          0.0000
   9.3600         14.9830         14.9830         14.9830          0.0000          0.0000          0.0000
   9.3800         14.9875         14.9875         14.9875          0.0000          0.0000          0.0000
   9.4000         14.9965         14.9965         14.9965          0.0000          0.0000          0.0000
   9.4200         15.0079         15.0079         15.0079          0.0000          0.0000          0.0000
   9.4400         15.0198         15.0198         15.0198          0.0000          0.0000          0.0000
   9.4600         15.0300         15.0300         15.0300          0.0000          0.0000          0.0000
   9.4800         15.0372         15.0372         15.0372          0.0000          0.0000          0.0000
   9.5000         15.0401         15.0401         15.0401          0.0000          0.0000          0.0000
   9.5200         15.0383         15.0383         15.0383          0.0000          0.0000          0.0000
   9.5400         15.0319         15.0319         15.0319          0.0000          0.0000          0.0000
   9.5600         15.0214         15.0214         15.0214          0.0000          0.0000          0.0000
   9.5800         15.0076         15.0076         15.0076          0.0000          0.0000          0.0000
   9.6000         14.9912         14.9912         14.9912          0.0000          0.0000          0.0000
   9.6200         14.9727         14.9727         14.9727          0.0000          0.0000          0.0000
   9.6400         14.9521         14.9521         14.9521          0.0000          0.0000          0.0000
   9.6600         14.9294         14.9294         14.9294          0.0000          0.0000          0.0000
   9.6800         14.9038         14.9038         14.9038          0.0000          0.0000          0.0000
   9.7000         14.8747         14.8747         14.8747          0.0000          0.0000          0.0000
   9.7200         14.8415         14.8415         14.8415          0.0000          0.0000          0.0000
   9.7400         14.8038         14.8038         14.8038          0.0000          0.0000          0.0000
   9.7600         14.7619         14.7619         14.7619          0.0000          0.0000          0.0000
   9.7800         14.7163         14.7163         14.7163          0.0000          0.0000          0.0000
   9.8000         14.6679         14.6679         14.6679          0.0000          0.0000          0.0000
   9.8200         14.6181         14.6181         14.6181          0.0000          0.0000          0.0000
   9.8400         14.5686         14.5686         14.5686          0.0000          0.0000          0.0000
   9.8600         14.5212         14.5212         14.5212          0.0000          0.0000          0.0000
   9.8800         14.4776         14.4776         14.4776          0.0000          0.0000          0.0000
   9.9000         14.4395         14.4395         14.4395          0.0000          0.0000          0.0000
   9.9200         14.4083         14.4083         14.4083          0.0000          0.0000          0.0000
   9.9400         14.3848         14.3848         14.3848          0.0000          0.0000          0.0000
   9.9600         14.3694         14.3694         14.3694          0.0000          0.0000          0.0000
   9.9800         14.3620         14.3620         14.3620          0.0000          0.0000          0.0000
  10.0000         14.3616         14.3616         14.3616          0.0000          0.0000          0.0000
  10.0200         14.3665         14.3665         14.3665          0.0000          0.0000          0.0000
  10.0400         14.3749         14.3749         14.3749          0.0000          0.0000          0.0000
  10.0600         14.3844         14.3844         14.3844          0.0000          0.0000          0.0000
  10.0800         14.3931         14.3931         14.3931          0.0000          0.0000          0.0000
  10.1000         14.3990         14.3990         14.3990          0.0000          0.0000          0.0000
  10.1200         14.4011         14.4011         14.4011          0.0000          0.0000          0.0000
  10.1400         14.3987         14.3987         14.3987          0.0000          0.0000          0.0000
  10.1600         14.3920         14.3920         14.3920          0.0000          0.0000          0.0000
  10.1800         14.3817         14.3817         14.3817          0.0000          0.0000          0.0000
  10.2000         14.3688         14.3688         14.3688          0.0000          0.0000          0.0000
  10.2200         14.3545         14.3545         14.3545          0.0000          0.0000          0.0000
  10.2400         14.3398         14.3398         14.3398          0.0000          0.0000          0.0000
  10.2600         14.3254         14.3254         14.3254          0.0000          0.0000          0.0000
  10.2800         14.3114         14.3114         14.3114          0.0000          0.0000          0.0000
  10.3000         14.2975         14.2975         14.2975          0.0000          0.0000          0.0000
  10.3200         14.2826         14.2826         14.2826          0.0000          0.0000          0.0000
  10.3400         14.2653         14.2653         14.2653          0.0000          0.0000          0.0000
  10.3600         14.2445         14.2445         14.2445          0.0000          0.0000          0.0000
  10.3800         14.2189         14.2189         14.2189          0.0000          0.0000          0.0000
  10.4000         14.1879         14.1879         14.1879          0.0000          0.0000          0.0000
  10.4200         14.1516         14.1516         14.1516          0.0000          0.0000          0.0000
  10.4400         14.1109         14.1109         14.1109          0.0000          0.0000          0.0000
  10.4600         14.0669         14.0669         14.0669          0.0000          0.0000          0.0000
  10.4800         14.0214         14.0214         14.0214          0.0000          0.0000          0.0000
  10.5000         13.9760         13.9760         13.9760          0.0000          0.0000          0.0000
  10.5200         13.9325         13.9325         13.9325          0.0000          0.0000          0.0000
  10.5400         13.8922         13.8922         13.8922          0.0000          0.0000          0.0000
  10.5600         13.8562         13.8562         13.8562          0.0000          0.0000          0.0000
  10.5800         13.8252         13.8252         13.8252          0.0000          0.0000          0.0000
  10.6000         13.7996         13.7996         13.7996          0.0000          0.0000          0.0000
  10.6200         13.7792         13.7792         13.7792          0.0000          0.0000          0.0000
  10.6400         13.7638         13.7638         13.7638          0.0000          0.0000          0.0000
  10.6600         13.7528         13.7528         13.7528          0.0000          0.0000          0.0000
  10.6800         13.7455         13.7455         13.7455          0.0000          0.0000          0.0000
  10.7000         13.7407         13.7407         13.7407          0.0000          0.0000          0.0000
  10.7200         13.7375         13.7375         13.7375          0.0000          0.0000          0.0000
  10.7400         13.7349         13.7349         13.7349          0.0000          0.0000          0.0000
  10.7600         13.7317         13.7317         13.7317          0.0000          0.0000          0.0000
  10.7800         13.7272         13.7272         13.7272          0.0000          0.0000          0.0000
  10.8000         13.7207         13.7207         13.7207          0.0000          0.0000          0.0000
  10.8200         13.7119         13.7119         13.7119          0.0000          0.0000          0.0000
  10.8400         13.7007         13.7007         13.7007          0.0000          0.0000          0.0000
  10.8600         13.6872         13.6872         13.6872          0.0000          0.0000          0.0000
  10.8800         13.6718         13.6718         13.6718          0.0000          0.0000          0.0000
  10.9000         13.6549         13.6549         13.6549          0.0000          0.0000          0.0000
  10.9200         13.6367         13.6367         13.6367          0.0000          0.0000          0.0000
  10.9400         13.6175         13.6175         13.6175          0.0000          0.0000          0.0000
  10.9600         13.5973         13.5973         13.5973          0.0000          0.0000          0.0000
  10.9800         13.5763         13.5763         13.5763          0.0000          0.0000          0.0000
  11.0000         13.5543         13.5543         13.5543          0.0000          0.0000          0.0000
  11.0200         13.5314         13.5314         13.5314          0.0000          0.0000          0.0000
  11.0400         13.5076         13.5076         13.5076          0.0000          0.0000          0.0000
  11.0600         13.4827         13.4827         13.4827          0.0000          0.0000          0.0000
  11.0800         13.4567         13.4567         13.4567          0.0000          0.0000          0.0000
  11.1000         13.4292         13.4292         13.4292          0.0000          0.0000          0.0000
  11.1200         13.4001         13.4001         13.4001          0.0000          0.0000          0.0000
  11.1400         13.3692         13.3692         13.3692          0.0000          0.0000          0.0000
  11.1600         13.3364         13.3364         13.3364          0.0000          0.0000          0.0000
  11.1800         13.3020         13.3020         13.3020          0.0000          0.0000          0.0000
  11.2000         13.2666         13.2666         13.2666          0.0000          0.0000          0.0000
  11.2200         13.2311         13.2311         13.2311          0.0000          0.0000          0.0000
  11.2400         13.1964         13.1964         13.1964          0.0000          0.0000          0.0000
  11.2600         13.1634         13.1634         13.1634          0.0000          0.0000          0.0000
  11.2800         13.1328         13.1328         13.1328          0.0000          0.0000          0.0000
  11.3000         13.1048         13.1048         13.1048          0.0000          0.0000          0.0000
  11.3200         13.0795         13.0795         13.0795          0.0000          0.0000          0.0000
  11.3400         13.0567         13.0567         13.0567          0.0000          0.0000          0.0000
  11.3600         13.0358         13.0358         13.0358          0.0000          0.0000          0.0000
  11.3800         13.0166         13.0166         13.0166          0.0000          0.0000          0.0000
  11.4000         12.9986         12.9986         12.9986          0.0000          0.0000          0.0000
  11.4200         12.9816         12.9816         12.9816          0.0000          0.0000          0.0000
  11.4400         12.9656         12.9656         12.9656          0.0000          0.0000          0.0000
  11.4600         12.9505         12.9505         12.9505          0.0000          0.0000          0.0000
  11.4800         12.9363         12.9363         12.9363          0.0000          0.0000          0.0000
  11.5000         12.9231         12.9231         12.9231          0.0000          0.0000          0.0000
  11.5200         12.9107         12.9107         12.9107          0.0000          0.0000          0.0000
  11.5400         12.8993         12.8993         12.8993          0.0000          0.0000          0.0000
  11.5600         12.8887         12.8887         12.8887          0.0000          0.0000          0.0000
  11.5800         12.8790         12.8790         12.8790          0.0000          0.0000          0.0000
  11.6000         12.8699         12.8699         12.8699          0.0000          0.0000          0.0000
  11.6200         12.8615         12.8615         12.8615          0.0000          0.0000          0.0000
  11.6400         12.8535         12.8535         12.8535          0.0000          0.0000          0.0000
  11.6600         12.8459         12.8459         12.8459          0.0000          0.0000          0.0000
  11.6800         12.8386         12.8386         12.8386          0.0000          0.0000          0.0000
  11.7000         12.8316         12.8316         12.8316          0.0000          0.0000          0.0000
  11.7200         12.8249         12.8249         12.8249          0.0000          0.0000          0.0000
  11.7400         12.8185         12.8185         12.8185          0.0000          0.0000          0.0000
  11.7600         12.8122         12.8122         12.8122          0.0000          0.0000          0.0000
  11.7800         12.8057         12.8057         12.8057          0.0000          0.0000          0.0000
  11.8000         12.7983         12.7983         12.7983          0.0000          0.0000          0.0000
  11.8200         12.7888         12.7888         12.7888          0.0000          0.0000          0.0000
  11.8400         12.7763         12.7763         12.7763          0.0000          0.0000          0.0000
  11.8600         12.7596         12.7596         12.7596          0.0000          0.0000          0.0000
  11.8800         12.7379         12.7379         12.7379          0.0000          0.0000          0.0000
  11.9000         12.7108         12.7108         12.7108          0.0000          0.0000          0.0000
  11.9200         12.6784         12.6784         12.6784          0.0000          0.0000          0.0000
  11.9400         12.6415         12.6415         12.6415          0.0000          0.0000          0.0000
  11.9600         12.6012         12.6012         12.6012          0.0000          0.0000          0.0000
  11.9800         12.5589         12.5589         12.5589          0.0000          0.0000          0.0000
  12.0000         12.5161         12.5161         12.5161          0.0000          0.0000          0.0000
  12.0200         12.4743         12.4743         12.4743          0.0000          0.0000          0.0000
  12.0400         12.4347         12.4347         12.4347          0.0000          0.0000          0.0000
  12.0600         12.3982         12.3982         12.3982          0.0000          0.0000          0.0000
  12.0800         12.3651         12.3651         12.3651          0.0000          0.0000          0.0000
  12.1000         12.3358         12.3358         12.3358          0.0000          0.0000          0.0000
  12.1200         12.3099         12.3099         12.3099          0.0000          0.0000          0.0000
  12.1400         12.2871         12.2871         12.2871          0.0000          0.0000          0.0000
  12.1600         12.2667         12.2667         12.2667          0.0000          0.0000          0.0000
  12.1800         12.2482         12.2482         12.2482          0.0000          0.0000          0.0000
  12.2000         12.2309         12.2309         12.2309          0.0000          0.0000          0.0000
  12.2200         12.2141         12.2141         12.2141          0.0000          0.0000          0.0000
  12.2400         12.1973         12.1973         12.1973          0.0000          0.0000          0.0000
  12.2600         12.1799         12.1799         12.1799          0.0000          0.0000          0.0000
  12.2800         12.1615         12.1615         12.1615          0.0000          0.0000          0.0000
  12.3000         12.1420         12.1420         12.1420          0.0000          0.0000          0.0000
  12.3200         12.1213         12.1213         12.1213          0.0000          0.0000          0.0000
  12.3400         12.0999         12.0999         12.0999          0.0000          0.0000          0.0000
  12.3600         12.0783         12.0783         12.0783          0.0000          0.0000          0.0000
  12.3800         12.0570         12.0570         12.0570          0.0000          0.0000          0.0000
  12.4000         12.0365         12.0365         12.0365          0.0000          0.0000          0.0000
  12.4200         12.0170         12.0170         12.0170          0.0000          0.0000          0.0000
  12.4400         11.9985         11.9985         11.9985          0.0000          0.0000          0.0000
  12.4600         11.9805         11.9805         11.9805          0.0000          0.0000          0.0000
  12.4800         11.9626         11.9626         11.9626          0.0000          0.0000          0.0000
  12.5000         11.9438         11.9438         11.9438          0.0000          0.0000          0.0000
  12.5200         11.9232         11.9232         11.9232          0.0000          0.0000          0.0000
  12.5400         11.9002         11.9002         11.9002          0.0000          0.0000          0.0000
  12.5600         11.8740         11.8740         11.8740          0.0000          0.0000          0.0000
  12.5800         11.8444         11.8444         11.8444          0.0000          0.0000          0.0000
  12.6000         11.8116         11.8116         11.8116          0.0000          0.0000          0.0000
  12.6200         11.7758         11.7758         11.7758          0.0000          0.0000          0.0000
  12.6400         11.7377         11.7377         11.7377          0.0000          0.0000          0.0000
  12.6600         11.6982         11.6982         11.6982          0.0000          0.0000          0.0000
  12.6800         11.6582         11.6582         11.6582          0.0000          0.0000          0.0000
  12.7000         11.6184         11.6184         11.6184          0.0000          0.0000          0.0000
  12.7200         11.5797         11.5797         11.5797          0.0000          0.0000          0.0000
  12.7400         11.5426         11.5426         11.5426          0.0000          0.0000          0.0000
  12.7600         11.5077         11.5077         11.5077          0.0000          0.0000          0.0000
  12.7800         11.4755         11.4755         11.4755          0.0000          0.0000          0.0000
  12.8000         11.4462         11.4462         11.4462          0.0000          0.0000          0.0000
  12.8200         11.4200         11.4200         11.4200          0.0000          0.0000          0.0000
  12.8400         11.3966         11.3966         11.3966          0.0000          0.0000          0.0000
  12.8600         11.3757         11.3757         11.3757          0.0000          0.0000          0.0000
  12.8800         11.3566         11.3566         11.3566          0.0000          0.0000          0.0000
  12.9000         11.3387         11.3387         11.3387          0.0000          0.0000          0.0000
  12.9200         11.3209         11.3209         11.3209          0.0000          0.0000          0.0000
  12.9400         11.3027         11.3027         11.3027          0.0000          0.0000          0.0000
  12.9600         11.2835         11.2835         11.2835          0.0000          0.0000          0.0000
  12.9800         11.2629         11.2629         11.2629          0.0000          0.0000          0.0000
  13.0000         11.2410         11.2410         11.2410          0.0000          0.0000          0.0000
  13.0200         11.2180         11.2180         11.2180          0.0000          0.0000          0.0000
  13.0400         11.1942         11.1942         11.1942          0.0000          0.0000          0.0000
  13.0600         11.1699         11.1699         11.1699          0.0000          0.0000          0.0000
  13.0800         11.1456         11.1456         11.1456          0.0000          0.0000          0.0000
  13.1000         11.1213         11.1213         11.1213          0.0000          0.0000          0.0000
  13.1200         11.0972         11.0972         11.0972          0.0000          0.0000          0.0000
  13.1400         11.0733         11.0733         11.0733          0.0000          0.0000          0.0000
  13.1600         11.0499         11.0499         11.0499          0.0000          0.0000          0.0000
  13.1800         11.0269         11.0269         11.0269          0.0000          0.0000          0.0000
  13.2000         11.0049         11.0049         11.0049          0.0000          0.0000          0.0000
  13.2200         10.9841         10.9841         10.9841          0.0000          0.0000          0.0000
  13.2400         10.9648         10.9648         10.9648          0.0000          0.0000          0.0000
  13.2600         10.9473         10.9473         10.9473          0.0000          0.0000          0.0000
  13.2800         10.9315         10.9315         10.9315          0.0000          0.0000          0.0000
  13.3000         10.9172         10.9172         10.9172          0.0000          0.0000          0.0000
  13.3200         10.9041         10.9041         10.9041          0.0000          0.0000          0.0000
  13.3400         10.8913         10.8913         10.8913          0.0000          0.0000          0.0000
  13.3600         10.8784         10.8784         10.8784          0.0000          0.0000          0.0000
  13.3800         10.8644         10.8644         10.8644          0.0000          0.0000          0.0000
  13.4000         10.8487         10.8487         10.8487          0.0000          0.0000          0.0000
  13.4200         10.8305         10.8305         10.8305          0.0000          0.0000          0.0000
  13.4400         10.8092         10.8092         10.8092          0.0000          0.0000          0.0000
  13.4600         10.7845         10.7845         10.7845          0.0000          0.0000          0.0000
  13.4800         10.7561         10.7561         10.7561          0.0000          0.0000          0.0000
  13.5000         10.7242         10.7242         10.7242          0.0000          0.0000          0.0000
  13.5200         10.6892         10.6892         10.6892          0.0000          0.0000          0.0000
  13.5400         10.6515         10.6515         10.6515          0.0000          0.0000          0.0000
  13.5600         10.6119         10.6119         10.6119          0.0000          0.0000          0.0000
  13.5800         10.5708         10.5708         10.5708          0.0000          0.0000          0.0000
  13.6000         10.5289         10.5289         10.5289          0.0000          0.0000          0.0000
  13.6200         10.4868         10.4868         10.4868          0.0000          0.0000          0.0000
  13.6400         10.4448         10.4448         10.4448          0.0000          0.0000          0.0000
  13.6600         10.4034         10.4034         10.4034          0.0000          0.0000          0.0000
  13.6800         10.3629         10.3629         10.3629          0.0000          0.0000          0.0000
  13.7000         10.3238         10.3238         10.3238          0.0000          0.0000          0.0000
  13.7200         10.2863         10.2863         10.2863          0.0000          0.0000          0.0000
  13.7400         10.2509         10.2509         10.2509          0.0000          0.0000          0.0000
  13.7600         10.2180         10.2180         10.2180          0.0000          0.0000          0.0000
  13.7800         10.1879         10.1879         10.1879          0.0000          0.0000          0.0000
  13.8000         10.1610         10.1610         10.1610          0.0000          0.0000          0.0000
  13.8200         10.1372         10.1372         10.1372          0.0000          0.0000          0.0000
  13.8400         10.1165         10.1165         10.1165          0.0000          0.0000          0.0000
  13.8600         10.0986         10.0986         10.0986          0.0000          0.0000          0.0000
  13.8800         10.0828         10.0828         10.0828          0.0000          0.0000          0.0000
  13.9000         10.0685         10.0685         10.0685          0.0000          0.0000          0.0000
  13.9200         10.0549         10.0549         10.0549          0.0000          0.0000          0.0000
  13.9400         10.0411         10.0411         10.0411          0.0000          0.0000          0.0000
  13.9600         10.0262         10.0262         10.0262          0.0000          0.0000          0.0000
  13.9800         10.0097         10.0097         10.0097          0.0000          0.0000          0.0000
  14.0000          9.9911          9.9911          9.9911          0.0000          0.0000          0.0000
  14.0200          9.9704          9.9704          9.9704          0.0000          0.0000          0.0000
  14.0400          9.9476          9.9476          9.9476          0.0000          0.0000          0.0000
  14.0600          9.9230          9.9230          9.9230          0.0000          0.0000          0.0000
  14.0800          9.8970          9.8970          9.8970          0.0000          0.0000          0.0000
  14.1000          9.8701          9.8701          9.8701          0.0000          0.0000          0.0000
  14.1200          9.8424          9.8424          9.8424          0.0000          0.0000          0.0000
  14.1400          9.8142          9.8142          9.8142          0.0000          0.0000          0.0000
  14.1600          9.7855          9.7855          9.7855          0.0000          0.0000          0.0000
  14.1800          9.7560          9.7560          9.7560          0.0000          0.0000          0.0000
  14.2000          9.7257          9.7257          9.7257          0.0000          0.0000          0.0000
  14.2200          9.6944          9.6944          9.6944          0.0000          0.0000          0.0000
  14.2400          9.6620          9.6620          9.6620          0.0000          0.0000          0.0000
  14.2600          9.6286          9.6286          9.6286          0.0000          0.0000          0.0000
  14.2800          9.5941          9.5941          9.5941          0.0000          0.0000          0.0000
  14.3000          9.5589          9.5589          9.5589          0.0000          0.0000          0.0000
  14.3200          9.5232          9.5232          9.5232          0.0000          0.0000          0.0000
  14.3400          9.4872          9.4872          9.4872          0.0000          0.0000          0.0000
  14.3600          9.4512          9.4512          9.4512          0.0000          0.0000          0.0000
  14.3800          9.4153          9.4153          9.4153          0.0000          0.0000          0.0000
  14.4000          9.3800          9.3800          9.3800          0.0000          0.0000          0.0000
  14.4200          9.3457          9.3457          9.3457          0.0000          0.0000          0.0000
  14.4400          9.3128          9.3128          9.3128          0.0000          0.0000          0.0000
  14.4600          9.2819          9.2819          9.2819          0.0000          0.0000          0.0000
  14.4800          9.2537          9.2537          9.2537          0.0000          0.0000          0.0000
  14.5000          9.2287          9.2287          9.2287          0.0000          0.0000          0.0000
  14.5200          9.2068          9.2068          9.2068          0.0000          0.0000          0.0000
  14.5400          9.1881          9.1881          9.1881          0.0000          0.0000          0.0000
  14.5600          9.1719          9.1719          9.1719          0.0000          0.0000          0.0000
  14.5800          9.1576          9.1576          9.1576          0.0000          0.0000          0.0000
  14.6000          9.1441          9.1441          9.1441          0.0000          0.0000          0.0000
  14.6200          9.1305          9.1305          9.1305          0.0000          0.0000          0.0000
  14.6400          9.1162          9.1162          9.1162          0.0000          0.0000          0.0000
  14.6600          9.1005          9.1005          9.1005          0.0000          0.0000          0.0000
  14.6800          9.0833          9.0833          9.0833          0.0000          0.0000          0.0000
  14.7000          9.0647          9.0647          9.0647          0.0000          0.0000          0.0000
  14.7200          9.0449          9.0449          9.0449          0.0000          0.0000          0.0000
  14.7400          9.0243          9.0243          9.0243          0.0000          0.0000          0.0000
  14.7600          9.0031          9.0031          9.0031          0.0000          0.0000          0.0000
  14.7800          8.9815          8.9815          8.9815          0.0000          0.0000          0.0000
  14.8000          8.9595          8.9595          8.9595          0.0000          0.0000          0.0000
  14.8200          8.9369          8.9369          8.9369          0.0000          0.0000          0.0000
  14.8400          8.9134          8.9134          8.9134          0.0000          0.0000          0.0000
  14.8600          8.8889          8.8889          8.8889          0.0000          0.0000          0.0000
  14.8800          8.8630          8.8630          8.8630          0.0000          0.0000          0.0000
  14.9000          8.8359          8.8359          8.8359          0.0000          0.0000          0.0000
  14.9200          8.8073          8.8073          8.8073          0.0000          0.0000          0.0000
  14.9400          8.7774          8.7774          8.7774          0.0000          0.0000          0.0000
  14.9600          8.7460          8.7460          8.7460          0.0000          0.0000          0.0000
  14.9800          8.7129          8.7129          8.7129          0.0000          0.0000          0.0000
  15.0000          8.6777          8.6777          8.6777          0.0000          0.0000          0.0000
  15.0200          8.6403          8.6403          8.6403          0.0000          0.0000          0.0000
  15.0400          8.6005          8.6005          8.6005          0.0000          0.0000          0.0000
  15.0600          8.5584          8.5584          8.5584          0.0000          0.0000          0.0000
  15.0800          8.5144          8.5144          8.5144          0.0000          0.0000          0.0000
  15.1000          8.4691          8.4691          8.4691          0.0000          0.0000          0.0000
  15.1200          8.4232          8.4232          8.4232          0.0000          0.0000          0.0000
  15.1400          8.3775          8.3775          8.3775          0.0000          0.0000          0.0000
  15.1600          8.3323          8.3323          8.3323          0.0000          0.0000          0.0000
  15.1800          8.2881          8.2881          8.2881          0.0000          0.0000          0.0000
  15.2000          8.2447          8.2447          8.2447          0.0000          0.0000          0.0000
  15.2200          8.2019          8.2019          8.2019          0.0000          0.0000          0.0000
  15.2400          8.1597          8.1597          8.1597          0.0000          0.0000          0.0000
  15.2600          8.1180          8.1180          8.1180          0.0000          0.0000          0.0000
  15.2800          8.0767          8.0767          8.0767          0.0000          0.0000          0.0000
  15.3000          8.0362          8.0362          8.0362          0.0000          0.0000          0.0000
  15.3200          7.9968          7.9968          7.9968          0.0000          0.0000          0.0000
  15.3400          7.9586          7.9586          7.9586          0.0000          0.0000          0.0000
  15.3600          7.9218          7.9218          7.9218          0.0000          0.0000          0.0000
  15.3800          7.8861          7.8861          7.8861          0.0000          0.0000          0.0000
  15.4000          7.8512          7.8512          7.8512          0.0000          0.0000          0.0000
  15.4200          7.8168          7.8168          7.8168          0.0000          0.0000          0.0000
  15.4400          7.7824          7.7824          7.7824          0.0000          0.0000          0.0000
  15.4600          7.7480          7.7480          7.7480          0.0000          0.0000          0.0000
  15.4800          7.7133          7.7133          7.7133          0.0000          0.0000          0.0000
  15.5000          7.6785          7.6785          7.6785          0.0000          0.0000          0.0000
  15.5200          7.6436          7.6436          7.6436          0.0000          0.0000          0.0000
  15.5400          7.6090          7.6090          7.6090          0.0000          0.0000          0.0000
  15.5600          7.5751          7.5751          7.5751          0.0000          0.0000          0.0000
  15.5800          7.5422          7.5422          7.5422          0.0000          0.0000          0.0000
  15.6000          7.5108          7.5108          7.5108          0.0000          0.0000          0.0000
  15.6200          7.4812          7.4812          7.4812          0.0000          0.0000          0.0000
  15.6400          7.4538          7.4538          7.4538          0.0000          0.0000          0.0000
  15.6600          7.4287          7.4287          7.4287          0.0000          0.0000          0.0000
  15.6800          7.4056          7.4056          7.4056          0.0000          0.0000          0.0000
  15.7000          7.3841          7.3841          7.3841          0.0000          0.0000          0.0000
  15.7200          7.3632          7.3632          7.3632          0.0000          0.0000          0.0000
  15.7400          7.3418          7.3418          7.3418          0.0000          0.0000          0.0000
  15.7600          7.3186          7.3186          7.3186          0.0000          0.0000          0.0000
  15.7800          7.2923          7.2923          7.2923          0.0000          0.0000          0.0000
  15.8000          7.2618          7.2618          7.2618          0.0000          0.0000          0.0000
  15.8200          7.2263          7.2263          7.2263          0.0000          0.0000          0.0000
  15.8400          7.1852          7.1852          7.1852          0.0000          0.0000          0.0000
  15.8600          7.1386          7.1386          7.1386          0.0000          0.0000          0.0000
  15.8800          7.0868          7.0868          7.0868          0.0000          0.0000          0.0000
  15.9000          7.0303          7.0303          7.0303          0.0000          0.0000          0.0000
  15.9200          6.9700          6.9700          6.9700          0.0000          0.0000          0.0000
  15.9400          6.9072          6.9072          6.9072          0.0000          0.0000          0.0000
  15.9600          6.8429          6.8429          6.8429          0.0000          0.0000          0.0000
  15.9800          6.7782          6.7782          6.7782          0.0000          0.0000          0.0000
  16.0000          6.7145          6.7145          6.7145          0.0000          0.0000          0.0000
  16.0200          6.6527          6.6527          6.6527          0.0000          0.0000          0.0000
  16.0400          6.5936          6.5936          6.5936          0.0000          0.0000          0.0000
  16.0600          6.5379          6.5379          6.5379          0.0000          0.0000          0.0000
  16.0800          6.4859          6.4859          6.4859          0.0000          0.0000          0.0000
  16.1000          6.4378          6.4378          6.4378          0.0000          0.0000          0.0000
  16.1200          6.3934          6.3934          6.3934          0.0000          0.0000          0.0000
  16.1400          6.3523          6.3523          6.3523          0.0000          0.0000          0.0000
  16.1600          6.3135          6.3135          6.3135          0.0000          0.0000          0.0000
  16.1800          6.2761          6.2761          6.2761          0.0000          0.0000          0.0000
  16.2000          6.2388          6.2388          6.2388          0.0000          0.0000          0.0000
  16.2200          6.2005          6.2005          6.2005          0.0000          0.0000          0.0000
  16.2400          6.1600          6.1600          6.1600          0.0000          0.0000          0.0000
  16.2600          6.1168          6.1168          6.1168          0.0000          0.0000          0.0000
  16.2800          6.0706          6.0706          6.0706          0.0000          0.0000          0.0000
  16.3000          6.0217          6.0217          6.0217          0.0000          0.0000          0.0000
  16.3200          5.9705          5.9705          5.9705          0.0000          0.0000          0.0000
  16.3400          5.9176          5.9176          5.9176          0.0000          0.0000          0.0000
  16.3600          5.8637          5.8637          5.8637          0.0000          0.0000          0.0000
  16.3800          5.8096          5.8096          5.8096          0.0000          0.0000          0.0000
  16.4000          5.7556          5.7556          5.7556          0.0000          0.0000          0.0000
  16.4200          5.7022          5.7022          5.7022          0.0000          0.0000          0.0000
  16.4400          5.6496          5.6496          5.6496          0.0000          0.0000          0.0000
  16.4600          5.5976          5.5976          5.5976          0.0000          0.0000          0.0000
  16.4800          5.5462          5.5462          5.5462          0.0000          0.0000          0.0000
  16.5000          5.4951          5.4951          5.4951          0.0000          0.0000          0.0000
  16.5200          5.4436          5.4436          5.4436          0.0000          0.0000          0.0000
  16.5400          5.3912          5.3912          5.3912          0.0000          0.0000          0.0000
  16.5600          5.3375          5.3375          5.3375          0.0000          0.0000          0.0000
  16.5800          5.2821          5.2821          5.2821          0.0000          0.0000          0.0000
  16.6000          5.2249          5.2249          5.2249          0.0000          0.0000          0.0000
  16.6200          5.1662          5.1662          5.1662          0.0000          0.0000          0.0000
  16.6400          5.1067          5.1067          5.1067          0.0000          0.0000          0.0000
  16.6600          5.0474          5.0474          5.0474          0.0000          0.0000          0.0000
  16.6800          4.9895          4.9895          4.9895          0.0000          0.0000          0.0000
  16.7000          4.9341          4.9341          4.9341          0.0000          0.0000          0.0000
  16.7200          4.8821          4.8821          4.8821          0.0000          0.0000          0.0000
  16.7400          4.8341          4.8341          4.8341          0.0000          0.0000          0.0000
  16.7600          4.7902          4.7902          4.7902          0.0000          0.0000          0.0000
  16.7800          4.7499          4.7499          4.7499          0.0000          0.0000          0.0000
  16.8000          4.7124          4.7124          4.7124          0.0000          0.0000          0.0000
  16.8200          4.6764          4.6764          4.6764          0.0000          0.0000          0.0000
  16.8400          4.6407          4.6407          4.6407          0.0000          0.0000          0.0000
  16.8600          4.6042          4.6042          4.6042          0.0000          0.0000          0.0000
  16.8800          4.5660          4.5660          4.5660          0.0000          0.0000          0.0000
  16.9000          4.5260          4.5260          4.5260          0.0000          0.0000          0.0000
  16.9200          4.4841          4.4841          4.4841          0.0000          0.0000          0.0000
  16.9400          4.4409          4.4409          4.4409          0.0000          0.0000          0.0000
  16.9600          4.3968          4.3968          4.3968          0.0000          0.0000          0.0000
  16.9800          4.3521          4.3521          4.3521          0.0000          0.0000          0.0000
  17.0000          4.3071          4.3071          4.3071          0.0000          0.0000          0.0000
  17.0200          4.2616          4.2616          4.2616          0.0000          0.0000          0.0000
  17.0400          4.2155          4.2155          4.2155          0.0000          0.0000          0.0000
  17.0600          4.1685          4.1685          4.1685          0.0000          0.0000          0.0000
  17.0800          4.1206          4.1206          4.1206          0.0000          0.0000          0.0000
  17.1000          4.0721          4.0721          4.0721          0.0000          0.0000          0.0000
  17.1200          4.0236          4.0236          4.0236          0.0000          0.0000          0.0000
  17.1400          3.9757          3.9757          3.9757          0.0000          0.0000          0.0000
  17.1600          3.9294          3.9294          3.9294          0.0000          0.0000          0.0000
  17.1800          3.8852          3.8852          3.8852          0.0000          0.0000          0.0000
  17.2000          3.8432          3.8432          3.8432          0.0000          0.0000          0.0000
  17.2200          3.8035          3.8035          3.8035          0.0000          0.0000          0.0000
  17.2400          3.7652          3.7652          3.7652          0.0000          0.0000          0.0000
  17.2600          3.7273          3.7273          3.7273          0.0000          0.0000          0.0000
  17.2800          3.6887          3.6887          3.6887          0.0000          0.0000          0.0000
  17.3000          3.6479          3.6479          3.6479          0.0000          0.0000          0.0000
  17.3200          3.6041          3.6041          3.6041          0.0000          0.0000          0.0000
  17.3400          3.5564          3.5564          3.5564          0.0000          0.0000          0.0000
  17.3600          3.5046          3.5046          3.5046          0.0000          0.0000          0.0000
  17.3800          3.4489          3.4489          3.4489          0.0000          0.0000          0.0000
  17.4000          3.3902          3.3902          3.3902          0.0000          0.0000          0.0000
  17.4200          3.3294          3.3294          3.3294          0.0000          0.0000          0.0000
  17.4400          3.2676          3.2676          3.2676          0.0000          0.0000          0.0000
  17.4600          3.2061          3.2061          3.2061          0.0000          0.0000          0.0000
  17.4800          3.1456          3.1456          3.1456          0.0000          0.0000          0.0000
  17.5000          3.0867          3.0867          3.0867          0.0000          0.0000          0.0000
  17.5200          3.0297          3.0297          3.0297          0.0000          0.0000          0.0000
  17.5400          2.9743          2.9743          2.9743          0.0000          0.0000          0.0000
  17.5600          2.9202          2.9202          2.9202          0.0000          0.0000          0.0000
  17.5800          2.8666          2.8666          2.8666          0.0000          0.0000          0.0000
  17.6000          2.8130          2.8130          2.8130          0.0000          0.0000          0.0000
  17.6200          2.7589          2.7589          2.7589          0.0000          0.0000          0.0000
  17.6400          2.7042          2.7042          2.7042          0.0000          0.0000          0.0000
  17.6600          2.6490          2.6490          2.6490          0.0000          0.0000          0.0000
  17.6800          2.5938          2.5938          2.5938          0.0000          0.0000          0.0000
  17.7000          2.5396          2.5396          2.5396          0.0000          0.0000          0.0000
  17.7200          2.4871          2.4871          2.4871          0.0000          0.0000          0.0000
  17.7400          2.4374          2.4374          2.4374          0.0000          0.0000          0.0000
  17.7600          2.3914          2.3914          2.3914          0.0000          0.0000          0.0000
  17.7800          2.3497          2.3497          2.3497          0.0000          0.0000          0.0000
  17.8000          2.3129          2.3129          2.3129          0.0000          0.0000          0.0000
  17.8200          2.2810          2.2810          2.2810          0.0000          0.0000          0.0000
  17.8400          2.2543          2.2543          2.2543          0.0000          0.0000          0.0000
  17.8600          2.2325          2.2325          2.2325          0.0000          0.0000          0.0000
  17.8800          2.2154          2.2154          2.2154          0.0000          0.0000          0.0000
  17.9000          2.2026          2.2026          2.2026          0.0000          0.0000          0.0000
  17.9200          2.1940          2.1940          2.1940          0.0000          0.0000          0.0000
  17.9400          2.1890          2.1890          2.1890          0.0000          0.0000          0.0000
  17.9600          2.1872          2.1872          2.1872          0.0000          0.0000          0.0000
  17.9800          2.1880          2.1880          2.1880          0.0000          0.0000          0.0000
  18.0000          2.1905          2.1905          2.1905          0.0000          0.0000          0.0000
  18.0200          2.1936          2.1936          2.1936          0.0000          0.0000          0.0000
  18.0400          2.1959          2.1959          2.1959          0.0000          0.0000          0.0000
  18.0600          2.1959          2.1959          2.1959          0.0000          0.0000          0.0000
  18.0800          2.1921          2.1921          2.1921          0.0000          0.0000          0.0000
  18.1000          2.1832          2.1832          2.1832          0.0000          0.0000          0.0000
  18.1200          2.1683          2.1683          2.1683          0.0000          0.0000          0.0000
  18.1400          2.1469          2.1469          2.1469          0.0000          0.0000          0.0000
  18.1600          2.1192          2.1192          2.1192          0.0000          0.0000          0.0000
  18.1800          2.0858          2.0858          2.0858          0.0000          0.0000          0.0000
  18.2000          2.0479          2.0479          2.0479          0.0000          0.0000          0.0000
  18.2200          2.0068          2.0068          2.0068          0.0000          0.0000          0.0000
  18.2400          1.9641          1.9641          1.9641          0.0000          0.0000          0.0000
  18.2600          1.9209          1.9209          1.9209          0.0000          0.0000          0.0000
  18.2800          1.8786          1.8786          1.8786          0.0000          0.0000          0.0000
  18.3000          1.8377          1.8377          1.8377          0.0000          0.0000          0.0000
  18.3200          1.7987          1.7987          1.7987          0.0000          0.0000          0.0000
  18.3400          1.7619          1.7619          1.7619          0.0000          0.0000          0.0000
  18.3600          1.7271          1.7271          1.7271          0.0000          0.0000          0.0000
  18.3800          1.6940          1.6940          1.6940          0.0000          0.0000          0.0000
  18.4000          1.6625          1.6625          1.6625          0.0000          0.0000          0.0000
  18.4200          1.6323          1.6323          1.6323          0.0000          0.0000          0.0000
  18.4400          1.6031          1.6031          1.6031          0.0000          0.0000          0.0000
  18.4600          1.5748          1.5748          1.5748          0.0000          0.0000          0.0000
  18.4800          1.5475          1.5475          1.5475          0.0000          0.0000          0.0000
  18.5000          1.5213          1.5213          1.5213          0.0000          0.0000          0.0000
  18.5200          1.4965          1.4965          1.4965          0.0000          0.0000          0.0000
  18.5400          1.4733          1.4733          1.4733          0.0000          0.0000          0.0000
  18.5600          1.4522          1.4522          1.4522          0.0000          0.0000          0.0000
  18.5800          1.4336          1.4336          1.4336          0.0000          0.0000          0.0000
  18.6000          1.4181          1.4181          1.4181          0.0000          0.0000          0.0000
  18.6200          1.4060          1.4060          1.4060          0.0000          0.0000          0.0000
  18.6400          1.3977          1.3977          1.3977          0.0000          0.0000          0.0000
  18.6600          1.3933          1.3933          1.3933          0.0000          0.0000          0.0000
  18.6800          1.3928          1.3928          1.3928          0.0000          0.0000          0.0000
  18.7000          1.3956          1.3956          1.3956          0.0000          0.0000          0.0000
  18.7200          1.4011          1.4011          1.4011          0.0000          0.0000          0.0000
  18.7400          1.4082          1.4082          1.4082          0.0000          0.0000          0.0000
  18.7600          1.4158          1.4158          1.4158          0.0000          0.0000          0.0000
  18.7800          1.4222          1.4222          1.4222          0.0000          0.0000          0.0000
  18.8000          1.4262          1.4262          1.4262          0.0000          0.0000          0.0000
  18.8200          1.4265          1.4265          1.4265          0.0000          0.0000          0.0000
  18.8400          1.4222          1.4222          1.4222          0.0000          0.0000          0.0000
  18.8600          1.4130          1.4130          1.4130          0.0000          0.0000          0.0000
  18.8800          1.3988          1.3988          1.3988          0.0000          0.0000          0.0000
  18.9000          1.3801          1.3801          1.3801          0.0000          0.0000          0.0000
  18.9200          1.3578          1.3578          1.3578          0.0000          0.0000          0.0000
  18.9400          1.3329          1.3329          1.3329          0.0000          0.0000          0.0000
  18.9600          1.3068          1.3068          1.3068          0.0000          0.0000          0.0000
  18.9800          1.2805          1.2805          1.2805          0.0000          0.0000          0.0000
  19.0000          1.2549          1.2549          1.2549          0.0000          0.0000          0.0000
  19.0200          1.2310          1.2310          1.2310          0.0000          0.0000          0.0000
  19.0400          1.2091          1.2091          1.2091          0.0000          0.0000          0.0000
  19.0600          1.1898          1.1898          1.1898          0.0000          0.0000          0.0000
  19.0800          1.1731          1.1731          1.1731          0.0000          0.0000          0.0000
  19.1000          1.1591          1.1591          1.1591          0.0000          0.0000          0.0000
  19.1200          1.1479          1.1479          1.1479          0.0000          0.0000          0.0000
  19.1400          1.1393          1.1393          1.1393          0.0000          0.0000          0.0000
  19.1600          1.1330          1.1330          1.1330          0.0000          0.0000          0.0000
  19.1800          1.1287          1.1287          1.1287          0.0000          0.0000          0.0000
  19.2000          1.1260          1.1260          1.1260          0.0000          0.0000          0.0000
  19.2200          1.1244          1.1244          1.1244          0.0000          0.0000          0.0000
  19.2400          1.1233          1.1233          1.1233          0.0000          0.0000          0.0000
  19.2600          1.1224          1.1224          1.1224          0.0000          0.0000          0.0000
  19.2800          1.1214          1.1214          1.1214          0.0000          0.0000          0.0000
  19.3000          1.1200          1.1200          1.1200          0.0000          0.0000          0.0000
  19.3200          1.1183          1.1183          1.1183          0.0000          0.0000          0.0000
  19.3400          1.1167          1.1167          1.1167          0.0000          0.0000          0.0000
  19.3600          1.1155          1.1155          1.1155          0.0000          0.0000          0.0000
  19.3800          1.1153          1.1153          1.1153          0.0000          0.0000          0.0000
  19.4000          1.1166          1.1166          1.1166          0.0000          0.0000          0.0000
  19.4200          1.1199          1.1199          1.1199          0.0000          0.0000          0.0000
  19.4400          1.1256          1.1256          1.1256          0.0000          0.0000          0.0000
  19.4600          1.1336          1.1336          1.1336          0.0000          0.0000          0.0000
  19.4800          1.1438          1.1438          1.1438          0.0000          0.0000          0.0000
  19.5000          1.1557          1.1557          1.1557          0.0000          0.0000          0.0000
  19.5200          1.1684          1.1684          1.1684          0.0000          0.0000          0.0000
  19.5400          1.1810          1.1810          1.1810          0.0000          0.0000          0.0000
  19.5600          1.1922          1.1922          1.1922          0.0000          0.0000          0.0000
  19.5800          1.2012          1.2012          1.2012          0.0000          0.0000          0.0000
  19.6000          1.2068          1.2068          1.2068          0.0000          0.0000          0.0000
  19.6200          1.2084          1.2084          1.2084          0.0000          0.0000          0.0000
  19.6400          1.2055          1.2055          1.2055          0.0000          0.0000          0.0000
  19.6600          1.1978          1.1978          1.1978          0.0000          0.0000          0.0000
  19.6800          1.1856          1.1856          1.1856          0.0000          0.0000          0.0000
  19.7000          1.1691          1.1691          1.1691          0.0000          0.0000          0.0000
  19.7200          1.1490          1.1490          1.1490          0.0000          0.0000          0.0000
  19.7400          1.1259          1.1259          1.1259          0.0000          0.0000          0.0000
  19.7600          1.1006          1.1006          1.1006          0.0000          0.0000          0.0000
  19.7800          1.0738          1.0738          1.0738          0.0000          0.0000          0.0000
  19.8000          1.0463          1.0463          1.0463          0.0000          0.0000          0.0000
  19.8200          1.0186          1.0186          1.0186          0.0000          0.0000          0.0000
  19.8400          0.9908          0.9908          0.9908          0.0000          0.0000          0.0000
  19.8600          0.9629          0.9629          0.9629          0.0000          0.0000          0.0000
  19.8800          0.9346          0.9346          0.9346          0.0000          0.0000          0.0000
  19.9000          0.9048          0.9048          0.9048          0.0000          0.0000          0.0000
  19.9200          0.8724          0.8724          0.8724          0.0000          0.0000          0.0000
  19.9400          0.8358          0.8358          0.8358          0.0000          0.0000          0.0000
  19.9600          0.7933          0.7933          0.7933          0.0000          0.0000          0.0000
  19.9800          0.7434          0.7434          0.7434          0.0000          0.0000          0.0000
  20.0000          0.6863          0.6863          0.6863          0.0000          0.0000          0.0000
