### imag part of conductivity (in units of 10^15 sec^-1)
   0.0000          3.2898          3.2898          3.2898          0.0000          0.0000          0.0000
   0.0200          3.2572          3.2572          3.2572          0.0000          0.0000          0.0000
   0.0400          3.2246          3.2246          3.2246          0.0000          0.0000          0.0000
   0.0600          3.1920          3.1920          3.1920          0.0000          0.0000          0.0000
   0.0800          3.1596          3.1596          3.1596          0.0000          0.0000          0.0000
   0.1000          3.1272          3.1272          3.1272          0.0000          0.0000          0.0000
   0.1200          3.0949          3.0949          3.0949          0.0000          0.0000          0.0000
   0.1400          3.0625          3.0625          3.0625          0.0000          0.0000          0.0000
   0.1600          3.0302          3.0302          3.0302          0.0000          0.0000          0.0000
   0.1800          2.9979          2.9979          2.9979          0.0000          0.0000          0.0000
   0.2000          2.9655          2.9655          2.9655          0.0000          0.0000          0.0000
   0.2200          2.9330          2.9330          2.9330          0.0000          0.0000          0.0000
   0.2400          2.9005          2.9005          2.9005          0.0000          0.0000          0.0000
   0.2600          2.8678          2.8678          2.8678          0.0000          0.0000          0.0000
   0.2800          2.8351          2.8351          2.8351          0.0000          0.0000          0.0000
   0.3000          2.8023          2.8023          2.8023          0.0000          0.0000          0.0000
   0.3200          2.7694          2.7694          2.7694          0.0000          0.0000          0.0000
   0.3400          2.7364          2.7364          2.7364          0.0000          0.0000          0.0000
   0.3600          2.7033          2.7033          2.7033          0.0000          0.0000          0.0000
   0.3800          2.6700          2.6700          2.6700          0.0000          0.0000          0.0000
   0.4000          2.6367          2.6367          2.6367          0.0000          0.0000          0.0000
   0.4200          2.6033          2.6033          2.6033          0.0000          0.0000          0.0000
   0.4400          2.5698          2.5698          2.5698          0.0000          0.0000          0.0000
   0.4600          2.5361          2.5361          2.5361          0.0000          0.0000          0.0000
   0.4800          2.5023          2.5023          2.5023          0.0000          0.0000          0.0000
   0.5000          2.4684          2.4684          2.4684          0.0000          0.0000          0.0000
   0.5200          2.4344          2.4344          2.4344          0.0000          0.0000          0.0000
   0.5400          2.4002          2.4002          2.4002          0.0000          0.0000          0.0000
   0.5600          2.3659          2.3659          2.3659          0.0000          0.0000          0.0000
   0.5800          2.3314          2.3314          2.3314          0.0000          0.0000          0.0000
   0.6000          2.2968          2.2968          2.2968          0.0000          0.0000          0.0000
   0.6200          2.2620          2.2620          2.2620          0.0000          0.0000          0.0000
   0.6400          2.2270          2.2270          2.2270          0.0000          0.0000          0.0000
   0.6600          2.1919          2.1919          2.1919          0.0000          0.0000          0.0000
   0.6800          2.1565          2.1565          2.1565          0.0000          0.0000          0.0000
   0.7000          2.1210          2.1210          2.1210          0.0000          0.0000          0.0000
   0.7200          2.0853          2.0853          2.0853          0.0000          0.0000          0.0000
   0.7400          2.0494          2.0494          2.0494          0.0000          0.0000          0.0000
   0.7600          2.0132          2.0132          2.0132          0.0000          0.0000          0.0000
   0.7800          1.9768          1.9768          1.9768          0.0000          0.0000          0.0000
   0.8000          1.9402          1.9402          1.9402          0.0000          0.0000          0.0000
   0.8200          1.9034          1.9034          1.9034          0.0000          0.0000          0.0000
   0.8400          1.8663          1.8663          1.8663          0.0000          0.0000          0.0000
   0.8600          1.8290          1.8290          1.8290          0.0000          0.0000          0.0000
   0.8800          1.7914          1.7914          1.7914          0.0000          0.0000          0.0000
   0.9000          1.7535          1.7535          1.7535          0.0000          0.0000          0.0000
   0.9200          1.7153          1.7153          1.7153          0.0000          0.0000          0.0000
   0.9400          1.6769          1.6769          1.6769          0.0000          0.0000          0.0000
   0.9600          1.6381          1.6381          1.6381          0.0000          0.0000          0.0000
   0.9800          1.5991          1.5991          1.5991          0.0000          0.0000          0.0000
   1.0000          1.5597          1.5597          1.5597          0.0000          0.0000          0.0000
   1.0200          1.5200          1.5200          1.5200          0.0000          0.0000          0.0000
   1.0400          1.4799          1.4799          1.4799          0.0000          0.0000          0.0000
   1.0600          1.4395          1.4395          1.4395          0.0000          0.0000          0.0000
   1.0800          1.3987          1.3987          1.3987          0.0000          0.0000          0.0000
   1.1000          1.3576          1.3576          1.3576          0.0000          0.0000          0.0000
   1.1200          1.3160          1.3160          1.3160          0.0000          0.0000          0.0000
   1.1400          1.2741          1.2741          1.2741          0.0000          0.0000          0.0000
   1.1600          1.2317          1.2317          1.2317          0.0000          0.0000          0.0000
   1.1800          1.1890          1.1890          1.1890          0.0000          0.0000          0.0000
   1.2000          1.1457          1.1457          1.1457          0.0000          0.0000          0.0000
   1.2200          1.1021          1.1021          1.1021          0.0000          0.0000          0.0000
   1.2400          1.0579          1.0579          1.0579          0.0000          0.0000          0.0000
   1.2600          1.0133          1.0133          1.0133          0.0000          0.0000          0.0000
   1.2800          0.9681          0.9681          0.9681          0.0000          0.0000          0.0000
   1.3000          0.9225          0.9225          0.9225          0.0000          0.0000          0.0000
   1.3200          0.8763          0.8763          0.8763          0.0000          0.0000          0.0000
   1.3400          0.8295          0.8295          0.8295          0.0000          0.0000          0.0000
   1.3600          0.7822          0.7822          0.7822          0.0000          0.0000          0.0000
   1.3800          0.7343          0.7343          0.7343          0.0000          0.0000          0.0000
   1.4000          0.6858          0.6858          0.6858          0.0000          0.0000          0.0000
   1.4200          0.6366          0.6366          0.6366          0.0000          0.0000          0.0000
   1.4400          0.5868          0.5868          0.5868          0.0000          0.0000          0.0000
   1.4600          0.5363          0.5363          0.5363          0.0000          0.0000          0.0000
   1.4800          0.4851          0.4851          0.4851          0.0000          0.0000          0.0000
   1.5000          0.4332          0.4332          0.4332          0.0000          0.0000          0.0000
   1.5200          0.3805          0.3805          0.3805          0.0000          0.0000          0.0000
   1.5400          0.3270          0.3270          0.3270          0.0000          0.0000          0.0000
   1.5600          0.2728          0.2728          0.2728          0.0000          0.0000          0.0000
   1.5800          0.2177          0.2177          0.2177          0.0000          0.0000          0.0000
   1.6000          0.1617          0.1617          0.1617          0.0000          0.0000          0.0000
   1.6200          0.1048          0.1048          0.1048          0.0000          0.0000          0.0000
   1.6400          0.0470          0.0470          0.0470          0.0000          0.0000          0.0000
   1.6600         -0.0117         -0.0117         -0.0117          0.0000          0.0000          0.0000
   1.6800         -0.0715         -0.0715         -0.0715          0.0000          0.0000          0.0000
   1.7000         -0.1324         -0.1324         -0.1324          0.0000          0.0000          0.0000
   1.7200         -0.1943         -0.1943         -0.1943          0.0000          0.0000          0.0000
   1.7400         -0.2573         -0.2573         -0.2573          0.0000          0.0000          0.0000
   1.7600         -0.3216         -0.3216         -0.3216          0.0000          0.0000          0.0000
   1.7800         -0.3871         -0.3871         -0.3871          0.0000          0.0000          0.0000
   1.8000         -0.4538         -0.4538         -0.4538          0.0000          0.0000          0.0000
   1.8200         -0.5220         -0.5220         -0.5220          0.0000          0.0000          0.0000
   1.8400         -0.5915         -0.5915         -0.5915          0.0000          0.0000          0.0000
   1.8600         -0.6624         -0.6624         -0.6624          0.0000          0.0000          0.0000
   1.8800         -0.7349         -0.7349         -0.7349          0.0000          0.0000          0.0000
   1.9000         -0.8090         -0.8090         -0.8090          0.0000          0.0000          0.0000
   1.9200         -0.8848         -0.8848         -0.8848          0.0000          0.0000          0.0000
   1.9400         -0.9623         -0.9623         -0.9623          0.0000          0.0000          0.0000
   1.9600         -1.0417         -1.0417         -1.0417          0.0000          0.0000          0.0000
   1.9800         -1.1230         -1.1230         -1.1230          0.0000          0.0000          0.0000
   2.0000         -1.2064         -1.2064         -1.2064          0.0000          0.0000          0.0000
   2.0200         -1.2919         -1.2919         -1.2919          0.0000          0.0000          0.0000
   2.0400         -1.3796         -1.3796         -1.3796          0.0000          0.0000          0.0000
   2.0600         -1.4698         -1.4698         -1.4698          0.0000          0.0000          0.0000
   2.0800         -1.5624         -1.5624         -1.5624          0.0000          0.0000          0.0000
   2.1000         -1.6578         -1.6578         -1.6578          0.0000          0.0000          0.0000
   2.1200         -1.7559         -1.7559         -1.7559          0.0000          0.0000          0.0000
   2.1400         -1.8571         -1.8571         -1.8571          0.0000          0.0000          0.0000
   2.1600         -1.9614         -1.9614         -1.9614          0.0000          0.0000          0.0000
   2.1800         -2.0692         -2.0692         -2.0692          0.0000          0.0000          0.0000
   2.2000         -2.1805         -2.1805         -2.1805          0.0000          0.0000          0.0000
   2.2200         -2.2958         -2.2958         -2.2958          0.0000          0.0000          0.0000
   2.2400         -2.4152         -2.4152         -2.4152          0.0000          0.0000          0.0000
   2.2600         -2.5390         -2.5390         -2.5390          0.0000          0.0000          0.0000
   2.2800         -2.6676         -2.6676         -2.6676          0.0000          0.0000          0.0000
   2.3000         -2.8013         -2.8013         -2.8013          0.0000          0.0000          0.0000
   2.3200         -2.9406         -2.9406         -2.9406          0.0000          0.0000          0.0000
   2.3400         -3.0858         -3.0858         -3.0858          0.0000          0.0000          0.0000
   2.3600         -3.2373         -3.2373         -3.2373          0.0000          0.0000          0.0000
   2.3800         -3.3957         -3.3957         -3.3957          0.0000          0.0000          0.0000
   2.4000         -3.5612         -3.5612         -3.5612          0.0000          0.0000          0.0000
   2.4200         -3.7344         -3.7344         -3.7344          0.0000          0.0000          0.0000
   2.4400         -3.9155         -3.9155         -3.9155          0.0000          0.0000          0.0000
   2.4600         -4.1046         -4.1046         -4.1046          0.0000          0.0000          0.0000
   2.4800         -4.3018         -4.3018         -4.3018          0.0000          0.0000          0.0000
   2.5000         -4.5066         -4.5066         -4.5066          0.0000          0.0000          0.0000
   2.5200         -4.7184         -4.7184         -4.7184          0.0000          0.0000          0.0000
   2.5400         -4.9362         -4.9362         -4.9362          0.0000          0.0000          0.0000
   2.5600         -5.1584         -5.1584         -5.1584          0.0000          0.0000          0.0000
   2.5800         -5.3828         -5.3828         -5.3828          0.0000          0.0000          0.0000
   2.6000         -5.6067         -5.6067         -5.6067          0.0000          0.0000          0.0000
   2.6200         -5.8267         -5.8267         -5.8267          0.0000          0.0000          0.0000
   2.6400         -6.0386         -6.0386         -6.0386          0.0000          0.0000          0.0000
   2.6600         -6.2376         -6.2376         -6.2376          0.0000          0.0000          0.0000
   2.6800         -6.4186         -6.4186         -6.4186          0.0000          0.0000          0.0000
   2.7000         -6.5763         -6.5763         -6.5763          0.0000          0.0000          0.0000
   2.7200         -6.7062         -6.7062         -6.7062          0.0000          0.0000          0.0000
   2.7400         -6.8045         -6.8045         -6.8045          0.0000          0.0000          0.0000
   2.7600         -6.8692         -6.8692         -6.8692          0.0000          0.0000          0.0000
   2.7800         -6.9002         -6.9002         -6.9002          0.0000          0.0000          0.0000
   2.8000         -6.8995         -6.8995         -6.8995          0.0000          0.0000          0.0000
   2.8200         -6.8706         -6.8706         -6.8706          0.0000          0.0000          0.0000
   2.8400         -6.8186         -6.8186         -6.8186          0.0000          0.0000          0.0000
   2.8600         -6.7490         -6.7490         -6.7490          0.0000          0.0000          0.0000
   2.8800         -6.6677         -6.6677         -6.6677          0.0000          0.0000          0.0000
   2.9000         -6.5801         -6.5801         -6.5801          0.0000          0.0000          0.0000
   2.9200         -6.4915         -6.4915         -6.4915          0.0000          0.0000          0.0000
   2.9400         -6.4059         -6.4059         -6.4059          0.0000          0.0000          0.0000
   2.9600         -6.3270         -6.3270         -6.3270          0.0000          0.0000          0.0000
   2.9800         -6.2577         -6.2577         -6.2577          0.0000          0.0000          0.0000
   3.0000         -6.1996         -6.1996         -6.1996          0.0000          0.0000          0.0000
   3.0200         -6.1536         -6.1536         -6.1536          0.0000          0.0000          0.0000
   3.0400         -6.1194         -6.1194         -6.1194          0.0000          0.0000          0.0000
   3.0600         -6.0951         -6.0951         -6.0951          0.0000          0.0000          0.0000
   3.0800         -6.0778         -6.0778         -6.0778          0.0000          0.0000          0.0000
   3.1000         -6.0638         -6.0638         -6.0638          0.0000          0.0000          0.0000
   3.1200         -6.0491         -6.0491         -6.0491          0.0000          0.0000          0.0000
   3.1400         -6.0302         -6.0302         -6.0302          0.0000          0.0000          0.0000
   3.1600         -6.0051         -6.0051         -6.0051          0.0000          0.0000          0.0000
   3.1800         -5.9736         -5.9736         -5.9736          0.0000          0.0000          0.0000
   3.2000         -5.9381         -5.9381         -5.9381          0.0000          0.0000          0.0000
   3.2200         -5.9030         -5.9030         -5.9030          0.0000          0.0000          0.0000
   3.2400         -5.8745         -5.8745         -5.8745          0.0000          0.0000          0.0000
   3.2600         -5.8588         -5.8588         -5.8588          0.0000          0.0000          0.0000
   3.2800         -5.8615         -5.8615         -5.8615          0.0000          0.0000          0.0000
   3.3000         -5.8860         -5.8860         -5.8860          0.0000          0.0000          0.0000
   3.3200         -5.9326         -5.9326         -5.9326          0.0000          0.0000          0.0000
   3.3400         -5.9988         -5.9988         -5.9988          0.0000          0.0000          0.0000
   3.3600         -6.0796         -6.0796         -6.0796          0.0000          0.0000          0.0000
   3.3800         -6.1683         -6.1683         -6.1683          0.0000          0.0000          0.0000
   3.4000         -6.2579         -6.2579         -6.2579          0.0000          0.0000          0.0000
   3.4200         -6.3415         -6.3415         -6.3415          0.0000          0.0000          0.0000
   3.4400         -6.4132         -6.4132         -6.4132          0.0000          0.0000          0.0000
   3.4600         -6.4677         -6.4677         -6.4677          0.0000          0.0000          0.0000
   3.4800         -6.5004         -6.5004         -6.5004          0.0000          0.0000          0.0000
   3.5000         -6.5064         -6.5064         -6.5064          0.0000          0.0000          0.0000
   3.5200         -6.4805         -6.4805         -6.4805          0.0000          0.0000          0.0000
   3.5400         -6.4163         -6.4163         -6.4163          0.0000          0.0000          0.0000
   3.5600         -6.3064         -6.3064         -6.3064          0.0000          0.0000          0.0000
   3.5800         -6.1420         -6.1420         -6.1420          0.0000          0.0000          0.0000
   3.6000         -5.9134         -5.9134         -5.9134          0.0000          0.0000          0.0000
   3.6200         -5.6103         -5.6103         -5.6103          0.0000          0.0000          0.0000
   3.6400         -5.2227         -5.2227         -5.2227          0.0000          0.0000          0.0000
   3.6600         -4.7425         -4.7425         -4.7425          0.0000          0.0000          0.0000
   3.6800         -4.1644         -4.1644         -4.1644          0.0000          0.0000          0.0000
   3.7000         -3.4876         -3.4876         -3.4876          0.0000          0.0000          0.0000
   3.7200         -2.7171         -2.7171         -2.7171          0.0000          0.0000          0.0000
   3.7400         -1.8635         -1.8635         -1.8635          0.0000          0.0000          0.0000
   3.7600         -0.9434         -0.9434         -0.9434          0.0000          0.0000          0.0000
   3.7800          0.0217          0.0217          0.0217          0.0000          0.0000          0.0000
   3.8000          1.0067          1.0067          1.0067          0.0000          0.0000          0.0000
   3.8200          1.9845          1.9845          1.9845          0.0000          0.0000          0.0000
   3.8400          2.9289          2.9289          2.9289          0.0000          0.0000          0.0000
   3.8600          3.8162          3.8162          3.8162          0.0000          0.0000          0.0000
   3.8800          4.6283          4.6283          4.6283          0.0000          0.0000          0.0000
   3.9000          5.3537          5.3537          5.3537          0.0000          0.0000          0.0000
   3.9200          5.9888          5.9888          5.9888          0.0000          0.0000          0.0000
   3.9400          6.5370          6.5370          6.5370          0.0000          0.0000          0.0000
   3.9600          7.0073          7.0073          7.0073          0.0000          0.0000          0.0000
   3.9800          7.4118          7.4118          7.4118          0.0000          0.0000          0.0000
   4.0000          7.7621          7.7621          7.7621          0.0000          0.0000          0.0000
   4.0200          8.0669          8.0669          8.0669          0.0000          0.0000          0.0000
   4.0400          8.3304          8.3304          8.3304          0.0000          0.0000          0.0000
   4.0600          8.5517          8.5517          8.5517          0.0000          0.0000          0.0000
   4.0800          8.7257          8.7257          8.7257          0.0000          0.0000          0.0000
   4.1000          8.8452          8.8452          8.8452          0.0000          0.0000          0.0000
   4.1200          8.9040          8.9040          8.9040          0.0000          0.0000          0.0000
   4.1400          8.8987          8.8987          8.8987          0.0000          0.0000          0.0000
   4.1600          8.8309          8.8309          8.8309          0.0000          0.0000          0.0000
   4.1800          8.7082          8.7082          8.7082          0.0000          0.0000          0.0000
   4.2000          8.5435          8.5435          8.5435          0.0000          0.0000          0.0000
   4.2200          8.3535          8.3535          8.3535          0.0000          0.0000          0.0000
   4.2400          8.1568          8.1568          8.1568          0.0000          0.0000          0.0000
   4.2600          7.9720          7.9720          7.9720          0.0000          0.0000          0.0000
   4.2800          7.8150          7.8150          7.8150          0.0000          0.0000          0.0000
   4.3000          7.6980          7.6980          7.6980          0.0000          0.0000          0.0000
   4.3200          7.6285          7.6285          7.6285          0.0000          0.0000          0.0000
   4.3400          7.6088          7.6088          7.6088          0.0000          0.0000          0.0000
   4.3600          7.6366          7.6366          7.6366          0.0000          0.0000          0.0000
   4.3800          7.7057          7.7057          7.7057          0.0000          0.0000          0.0000
   4.4000          7.8072          7.8072          7.8072          0.0000          0.0000          0.0000
   4.4200          7.9307          7.9307          7.9307          0.0000          0.0000          0.0000
   4.4400          8.0653          8.0653          8.0653          0.0000          0.0000          0.0000
   4.4600          8.2012          8.2012          8.2012          0.0000          0.0000          0.0000
   4.4800          8.3298          8.3298          8.3298          0.0000          0.0000          0.0000
   4.5000          8.4446          8.4446          8.4446          0.0000          0.0000          0.0000
   4.5200          8.5410          8.5410          8.5410          0.0000          0.0000          0.0000
   4.5400          8.6165          8.6165          8.6165          0.0000          0.0000          0.0000
   4.5600          8.6705          8.6705          8.6705          0.0000          0.0000          0.0000
   4.5800          8.7035          8.7035          8.7035          0.0000          0.0000          0.0000
   4.6000          8.7174          8.7174          8.7174          0.0000          0.0000          0.0000
   4.6200          8.7147          8.7147          8.7147          0.0000          0.0000          0.0000
   4.6400          8.6982          8.6982          8.6982          0.0000          0.0000          0.0000
   4.6600          8.6715          8.6715          8.6715          0.0000          0.0000          0.0000
   4.6800          8.6382          8.6382          8.6382          0.0000          0.0000          0.0000
   4.7000          8.6029          8.6029          8.6029          0.0000          0.0000          0.0000
   4.7200          8.5706          8.5706          8.5706          0.0000          0.0000          0.0000
   4.7400          8.5468          8.5468          8.5468          0.0000          0.0000          0.0000
   4.7600          8.5373          8.5373          8.5373          0.0000          0.0000          0.0000
   4.7800          8.5473          8.5473          8.5473          0.0000          0.0000          0.0000
   4.8000          8.5812          8.5812          8.5812          0.0000          0.0000          0.0000
   4.8200          8.6413          8.6413          8.6413          0.0000          0.0000          0.0000
   4.8400          8.7277          8.7277          8.7277          0.0000          0.0000          0.0000
   4.8600          8.8378          8.8378          8.8378          0.0000          0.0000          0.0000
   4.8800          8.9667          8.9667          8.9667          0.0000          0.0000          0.0000
   4.9000          9.1075          9.1075          9.1075          0.0000          0.0000          0.0000
   4.9200          9.2514          9.2514          9.2514          0.0000          0.0000          0.0000
   4.9400          9.3891          9.3891          9.3891          0.0000          0.0000          0.0000
   4.9600          9.5111          9.5111          9.5111          0.0000          0.0000          0.0000
   4.9800          9.6090          9.6090          9.6090          0.0000          0.0000          0.0000
   5.0000          9.6757          9.6757          9.6757          0.0000          0.0000          0.0000
   5.0200          9.7070          9.7070          9.7070          0.0000          0.0000          0.0000
   5.0400          9.7014          9.7014          9.7014          0.0000          0.0000          0.0000
   5.0600          9.6604          9.6604          9.6604          0.0000          0.0000          0.0000
   5.0800          9.5883          9.5883          9.5883          0.0000          0.0000          0.0000
   5.1000          9.4912          9.4912          9.4912          0.0000          0.0000          0.0000
   5.1200          9.3768          9.3768          9.3768          0.0000          0.0000          0.0000
   5.1400          9.2528          9.2528          9.2528          0.0000          0.0000          0.0000
   5.1600          9.1269          9.1269          9.1269          0.0000          0.0000          0.0000
   5.1800          9.0061          9.0061          9.0061          0.0000          0.0000          0.0000
   5.2000          8.8963          8.8963          8.8963          0.0000          0.0000          0.0000
   5.2200          8.8025          8.8025          8.8025          0.0000          0.0000          0.0000
   5.2400          8.7288          8.7288          8.7288          0.0000          0.0000          0.0000
   5.2600          8.6780          8.6780          8.6780          0.0000          0.0000          0.0000
   5.2800          8.6518          8.6518          8.6518          0.0000          0.0000          0.0000
   5.3000          8.6507          8.6507          8.6507          0.0000          0.0000          0.0000
   5.3200          8.6738          8.6738          8.6738          0.0000          0.0000          0.0000
   5.3400          8.7190          8.7190          8.7190          0.0000          0.0000          0.0000
   5.3600          8.7825          8.7825          8.7825          0.0000          0.0000          0.0000
   5.3800          8.8599          8.8599          8.8599          0.0000          0.0000          0.0000
   5.4000          8.9456          8.9456          8.9456          0.0000          0.0000          0.0000
   5.4200          9.0336          9.0336          9.0336          0.0000          0.0000          0.0000
   5.4400          9.1176          9.1176          9.1176          0.0000          0.0000          0.0000
   5.4600          9.1919          9.1919          9.1919          0.0000          0.0000          0.0000
   5.4800          9.2517          9.2517          9.2517          0.0000          0.0000          0.0000
   5.5000          9.2936          9.2936          9.2936          0.0000          0.0000          0.0000
   5.5200          9.3160          9.3160          9.3160          0.0000          0.0000          0.0000
   5.5400          9.3191          9.3191          9.3191          0.0000          0.0000          0.0000
   5.5600          9.3050          9.3050          9.3050          0.0000          0.0000          0.0000
   5.5800          9.2771          9.2771          9.2771          0.0000          0.0000          0.0000
   5.6000          9.2394          9.2394          9.2394          0.0000          0.0000          0.0000
   5.6200          9.1959          9.1959          9.1959          0.0000          0.0000          0.0000
   5.6400          9.1496          9.1496          9.1496          0.0000          0.0000          0.0000
   5.6600          9.1026          9.1026          9.1026          0.0000          0.0000          0.0000
   5.6800          9.0554          9.0554          9.0554          0.0000          0.0000          0.0000
   5.7000          9.0076          9.0076          9.0076          0.0000          0.0000          0.0000
   5.7200          8.9580          8.9580          8.9580          0.0000          0.0000          0.0000
   5.7400          8.9056          8.9056          8.9056          0.0000          0.0000          0.0000
   5.7600          8.8492          8.8492          8.8492          0.0000          0.0000          0.0000
   5.7800          8.7887          8.7887          8.7887          0.0000          0.0000          0.0000
   5.8000          8.7245          8.7245          8.7245          0.0000          0.0000          0.0000
   5.8200          8.6581          8.6581          8.6581          0.0000          0.0000          0.0000
   5.8400          8.5919          8.5919          8.5919          0.0000          0.0000          0.0000
   5.8600          8.5286          8.5286          8.5286          0.0000          0.0000          0.0000
   5.8800          8.4720          8.4720          8.4720          0.0000          0.0000          0.0000
   5.9000          8.4255          8.4255          8.4255          0.0000          0.0000          0.0000
   5.9200          8.3923          8.3923          8.3923          0.0000          0.0000          0.0000
   5.9400          8.3747          8.3747          8.3747          0.0000          0.0000          0.0000
   5.9600          8.3736          8.3736          8.3736          0.0000          0.0000          0.0000
   5.9800          8.3884          8.3884          8.3884          0.0000          0.0000          0.0000
   6.0000          8.4167          8.4167          8.4167          0.0000          0.0000          0.0000
   6.0200          8.4549          8.4549          8.4549          0.0000          0.0000          0.0000
   6.0400          8.4986          8.4986          8.4986          0.0000          0.0000          0.0000
   6.0600          8.5431          8.5431          8.5431          0.0000          0.0000          0.0000
   6.0800          8.5841          8.5841          8.5841          0.0000          0.0000          0.0000
   6.1000          8.6183          8.6183          8.6183          0.0000          0.0000          0.0000
   6.1200          8.6433          8.6433          8.6433          0.0000          0.0000          0.0000
   6.1400          8.6578          8.6578          8.6578          0.0000          0.0000          0.0000
   6.1600          8.6614          8.6614          8.6614          0.0000          0.0000          0.0000
   6.1800          8.6543          8.6543          8.6543          0.0000          0.0000          0.0000
   6.2000          8.6371          8.6371          8.6371          0.0000          0.0000          0.0000
   6.2200          8.6105          8.6105          8.6105          0.0000          0.0000          0.0000
   6.2400          8.5752          8.5752          8.5752          0.0000          0.0000          0.0000
   6.2600          8.5318          8.5318          8.5318          0.0000          0.0000          0.0000
   6.2800          8.4811          8.4811          8.4811          0.0000          0.0000          0.0000
   6.3000          8.4237          8.4237          8.4237          0.0000          0.0000          0.0000
   6.3200          8.3607          8.3607          8.3607          0.0000          0.0000          0.0000
   6.3400          8.2933          8.2933          8.2933          0.0000          0.0000          0.0000
   6.3600          8.2227          8.2227          8.2227          0.0000          0.0000          0.0000
   6.3800          8.1507          8.1507          8.1507          0.0000          0.0000          0.0000
   6.4000          8.0790          8.0790          8.0790          0.0000          0.0000          0.0000
   6.4200          8.0093          8.0093          8.0093          0.0000          0.0000          0.0000
   6.4400          7.9433          7.9433          7.9433          0.0000          0.0000          0.0000
   6.4600          7.8827          7.8827          7.8827          0.0000          0.0000          0.0000
   6.4800          7.8289          7.8289          7.8289          0.0000          0.0000          0.0000
   6.5000          7.7833          7.7833          7.7833          0.0000          0.0000          0.0000
   6.5200          7.7467          7.7467          7.7467          0.0000          0.0000          0.0000
   6.5400          7.7195          7.7195          7.7195          0.0000          0.0000          0.0000
   6.5600          7.7014          7.7014          7.7014          0.0000          0.0000          0.0000
   6.5800          7.6918          7.6918          7.6918          0.0000          0.0000          0.0000
   6.6000          7.6892          7.6892          7.6892          0.0000          0.0000          0.0000
   6.6200          7.6923          7.6923          7.6923          0.0000          0.0000          0.0000
   6.6400          7.6991          7.6991          7.6991          0.0000          0.0000          0.0000
   6.6600          7.7079          7.7079          7.7079          0.0000          0.0000          0.0000
   6.6800          7.7171          7.7171          7.7171          0.0000          0.0000          0.0000
   6.7000          7.7251          7.7251          7.7251          0.0000          0.0000          0.0000
   6.7200          7.7306          7.7306          7.7306          0.0000          0.0000          0.0000
   6.7400          7.7325          7.7325          7.7325          0.0000          0.0000          0.0000
   6.7600          7.7298          7.7298          7.7298          0.0000          0.0000          0.0000
   6.7800          7.7220          7.7220          7.7220          0.0000          0.0000          0.0000
   6.8000          7.7089          7.7089          7.7089          0.0000          0.0000          0.0000
   6.8200          7.6905          7.6905          7.6905          0.0000          0.0000          0.0000
   6.8400          7.6673          7.6673          7.6673          0.0000          0.0000          0.0000
   6.8600          7.6399          7.6399          7.6399          0.0000          0.0000          0.0000
   6.8800          7.6092          7.6092          7.6092          0.0000          0.0000          0.0000
   6.9000          7.5760          7.5760          7.5760          0.0000          0.0000          0.0000
   6.9200          7.5414          7.5414          7.5414          0.0000          0.0000          0.0000
   6.9400          7.5063          7.5063          7.5063          0.0000          0.0000          0.0000
   6.9600          7.4716          7.4716          7.4716          0.0000          0.0000          0.0000
   6.9800          7.4378          7.4378          7.4378          0.0000          0.0000          0.0000
   7.0000          7.4055          7.4055          7.4055          0.0000          0.0000          0.0000
   7.0200          7.3748          7.3748          7.3748          0.0000          0.0000          0.0000
   7.0400          7.3456          7.3456          7.3456          0.0000          0.0000          0.0000
   7.0600          7.3177          7.3177          7.3177          0.0000          0.0000          0.0000
   7.0800          7.2910          7.2910          7.2910          0.0000          0.0000          0.0000
   7.1000          7.2656          7.2656          7.2656          0.0000          0.0000          0.0000
   7.1200          7.2419          7.2419          7.2419          0.0000          0.0000          0.0000
   7.1400          7.2206          7.2206          7.2206          0.0000          0.0000          0.0000
   7.1600          7.2029          7.2029          7.2029          0.0000          0.0000          0.0000
   7.1800          7.1900          7.1900          7.1900          0.0000          0.0000          0.0000
   7.2000          7.1827          7.1827          7.1827          0.0000          0.0000          0.0000
   7.2200          7.1819          7.1819          7.1819          0.0000          0.0000          0.0000
   7.2400          7.1874          7.1874          7.1874          0.0000          0.0000          0.0000
   7.2600          7.1988          7.1988          7.1988          0.0000          0.0000          0.0000
   7.2800          7.2150          7.2150          7.2150          0.0000          0.0000          0.0000
   7.3000          7.2345          7.2345          7.2345          0.0000          0.0000          0.0000
   7.3200          7.2556          7.2556          7.2556          0.0000          0.0000          0.0000
   7.3400          7.2764          7.2764          7.2764          0.0000          0.0000          0.0000
   7.3600          7.2950          7.2950          7.2950          0.0000          0.0000          0.0000
   7.3800          7.3100          7.3100          7.3100          0.0000          0.0000          0.0000
   7.4000          7.3201          7.3201          7.3201          0.0000          0.0000          0.0000
   7.4200          7.3246          7.3246          7.3246          0.0000          0.0000          0.0000
   7.4400          7.3231          7.3231          7.3231          0.0000          0.0000          0.0000
   7.4600          7.3158          7.3158          7.3158          0.0000          0.0000          0.0000
   7.4800          7.3031          7.3031          7.3031          0.0000          0.0000          0.0000
   7.5000          7.2855          7.2855          7.2855          0.0000          0.0000          0.0000
   7.5200          7.2639          7.2639          7.2639          0.0000          0.0000          0.0000
   7.5400          7.2389          7.2389          7.2389          0.0000          0.0000          0.0000
   7.5600          7.2113          7.2113          7.2113          0.0000          0.0000          0.0000
   7.5800          7.1816          7.1816          7.1816          0.0000          0.0000          0.0000
   7.6000          7.1507          7.1507          7.1507          0.0000          0.0000          0.0000
   7.6200          7.1189          7.1189          7.1189          0.0000          0.0000          0.0000
   7.6400          7.0868          7.0868          7.0868          0.0000          0.0000          0.0000
   7.6600          7.0548          7.0548          7.0548          0.0000          0.0000          0.0000
   7.6800          7.0234          7.0234          7.0234          0.0000          0.0000          0.0000
   7.7000          6.9930          6.9930          6.9930          0.0000          0.0000          0.0000
   7.7200          6.9641          6.9641          6.9641          0.0000          0.0000          0.0000
   7.7400          6.9373          6.9373          6.9373          0.0000          0.0000          0.0000
   7.7600          6.9132          6.9132          6.9132          0.0000          0.0000          0.0000
   7.7800          6.8922          6.8922          6.8922          0.0000          0.0000          0.0000
   7.8000          6.8747          6.8747          6.8747          0.0000          0.0000          0.0000
   7.8200          6.8610          6.8610          6.8610          0.0000          0.0000          0.0000
   7.8400          6.8509          6.8509          6.8509          0.0000          0.0000          0.0000
   7.8600          6.8442          6.8442          6.8442          0.0000          0.0000          0.0000
   7.8800          6.8404          6.8404          6.8404          0.0000          0.0000          0.0000
   7.9000          6.8390          6.8390          6.8390          0.0000          0.0000          0.0000
   7.9200          6.8394          6.8394          6.8394          0.0000          0.0000          0.0000
   7.9400          6.8411          6.8411          6.8411          0.0000          0.0000          0.0000
   7.9600          6.8438          6.8438          6.8438          0.0000          0.0000          0.0000
   7.9800          6.8470          6.8470          6.8470          0.0000          0.0000          0.0000
   8.0000          6.8504          6.8504          6.8504          0.0000          0.0000          0.0000
   8.0200          6.8538          6.8538          6.8538          0.0000          0.0000          0.0000
   8.0400          6.8566          6.8566          6.8566          0.0000          0.0000          0.0000
   8.0600          6.8584          6.8584          6.8584          0.0000          0.0000          0.0000
   8.0800          6.8584          6.8584          6.8584          0.0000          0.0000          0.0000
   8.1000          6.8560          6.8560          6.8560          0.0000          0.0000          0.0000
   8.1200          6.8504          6.8504          6.8504          0.0000          0.0000          0.0000
   8.1400          6.8412          6.8412          6.8412          0.0000          0.0000          0.0000
   8.1600          6.8280          6.8280          6.8280          0.0000          0.0000          0.0000
   8.1800          6.8110          6.8110          6.8110          0.0000          0.0000          0.0000
   8.2000          6.7904          6.7904          6.7904          0.0000          0.0000          0.0000
   8.2200          6.7672          6.7672          6.7672          0.0000          0.0000          0.0000
   8.2400          6.7425          6.7425          6.7425          0.0000          0.0000          0.0000
   8.2600          6.7174          6.7174          6.7174          0.0000          0.0000          0.0000
   8.2800          6.6933          6.6933          6.6933          0.0000          0.0000          0.0000
   8.3000          6.6711          6.6711          6.6711          0.0000          0.0000          0.0000
   8.3200          6.6516          6.6516          6.6516          0.0000          0.0000          0.0000
   8.3400          6.6349          6.6349          6.6349          0.0000          0.0000          0.0000
   8.3600          6.6210          6.6210          6.6210          0.0000          0.0000          0.0000
   8.3800          6.6093          6.6093          6.6093          0.0000          0.0000          0.0000
   8.4000          6.5991          6.5991          6.5991          0.0000          0.0000          0.0000
   8.4200          6.5897          6.5897          6.5897          0.0000          0.0000          0.0000
   8.4400          6.5804          6.5804          6.5804          0.0000          0.0000          0.0000
   8.4600          6.5704          6.5704          6.5704          0.0000          0.0000          0.0000
   8.4800          6.5596          6.5596          6.5596          0.0000          0.0000          0.0000
   8.5000          6.5477          6.5477          6.5477          0.0000          0.0000          0.0000
   8.5200          6.5347          6.5347          6.5347          0.0000          0.0000          0.0000
   8.5400          6.5208          6.5208          6.5208          0.0000          0.0000          0.0000
   8.5600          6.5063          6.5063          6.5063          0.0000          0.0000          0.0000
   8.5800          6.4918          6.4918          6.4918          0.0000          0.0000          0.0000
   8.6000          6.4778          6.4778          6.4778          0.0000          0.0000          0.0000
   8.6200          6.4649          6.4649          6.4649          0.0000          0.0000          0.0000
   8.6400          6.4538          6.4538          6.4538          0.0000          0.0000          0.0000
   8.6600          6.4447          6.4447          6.4447          0.0000          0.0000          0.0000
   8.6800          6.4377          6.4377          6.4377          0.0000          0.0000          0.0000
   8.7000          6.4324          6.4324          6.4324          0.0000          0.0000          0.0000
   8.7200          6.4281          6.4281          6.4281          0.0000          0.0000          0.0000
   8.7400          6.4239          6.4239          6.4239          0.0000          0.0000          0.0000
   8.7600          6.4187          6.4187          6.4187          0.0000          0.0000          0.0000
   8.7800          6.4119          6.4119          6.4119          0.0000          0.0000          0.0000
   8.8000          6.4029          6.4029          6.4029          0.0000          0.0000          0.0000
   8.8200          6.3916          6.3916          6.3916          0.0000          0.0000          0.0000
   8.8400          6.3785          6.3785          6.3785          0.0000          0.0000          0.0000
   8.8600          6.3642          6.3642          6.3642          0.0000          0.0000          0.0000
   8.8800          6.3496          6.3496          6.3496          0.0000          0.0000          0.0000
   8.9000          6.3353          6.3353          6.3353          0.0000          0.0000          0.0000
   8.9200          6.3222          6.3222          6.3222          0.0000          0.0000          0.0000
   8.9400          6.3103          6.3103          6.3103          0.0000          0.0000          0.0000
   8.9600          6.2998          6.2998          6.2998          0.0000          0.0000          0.0000
   8.9800          6.2902          6.2902          6.2902          0.0000          0.0000          0.0000
   9.0000          6.2809          6.2809          6.2809          0.0000          0.0000          0.0000
   9.0200          6.2711          6.2711          6.2711          0.0000          0.0000          0.0000
   9.0400          6.2601          6.2601          6.2601          0.0000          0.0000          0.0000
   9.0600          6.2474          6.2474          6.2474          0.0000          0.0000          0.0000
   9.0800          6.2324          6.2324          6.2324          0.0000          0.0000          0.0000
   9.1000          6.2150          6.2150          6.2150          0.0000          0.0000          0.0000
   9.1200          6.1955          6.1955          6.1955          0.0000          0.0000          0.0000
   9.1400          6.1739          6.1739          6.1739          0.0000          0.0000          0.0000
   9.1600          6.1508          6.1508          6.1508          0.0000          0.0000          0.0000
   9.1800          6.1267          6.1267          6.1267          0.0000          0.0000          0.0000
   9.2000          6.1023          6.1023          6.1023          0.0000          0.0000          0.0000
   9.2200          6.0780          6.0780          6.0780          0.0000          0.0000          0.0000
   9.2400          6.0546          6.0546          6.0546          0.0000          0.0000          0.0000
   9.2600          6.0326          6.0326          6.0326          0.0000          0.0000          0.0000
   9.2800          6.0126          6.0126          6.0126          0.0000          0.0000          0.0000
   9.3000          5.9953          5.9953          5.9953          0.0000          0.0000          0.0000
   9.3200          5.9809          5.9809          5.9809          0.0000          0.0000          0.0000
   9.3400          5.9697          5.9697          5.9697          0.0000          0.0000          0.0000
   9.3600          5.9616          5.9616          5.9616          0.0000          0.0000          0.0000
   9.3800          5.9564          5.9564          5.9564          0.0000          0.0000          0.0000
   9.4000          5.9534          5.9534          5.9534          0.0000          0.0000          0.0000
   9.4200          5.9520          5.9520          5.9520          0.0000          0.0000          0.0000
   9.4400          5.9514          5.9514          5.9514          0.0000          0.0000          0.0000
   9.4600          5.9508          5.9508          5.9508          0.0000          0.0000          0.0000
   9.4800          5.9495          5.9495          5.9495          0.0000          0.0000          0.0000
   9.5000          5.9470          5.9470          5.9470          0.0000          0.0000          0.0000
   9.5200          5.9430          5.9430          5.9430          0.0000          0.0000          0.0000
   9.5400          5.9374          5.9374          5.9374          0.0000          0.0000          0.0000
   9.5600          5.9303          5.9303          5.9303          0.0000          0.0000          0.0000
   9.5800          5.9220          5.9220          5.9220          0.0000          0.0000          0.0000
   9.6000          5.9127          5.9127          5.9127          0.0000          0.0000          0.0000
   9.6200          5.9026          5.9026          5.9026          0.0000          0.0000          0.0000
   9.6400          5.8918          5.8918          5.8918          0.0000          0.0000          0.0000
   9.6600          5.8803          5.8803          5.8803          0.0000          0.0000          0.0000
   9.6800          5.8678          5.8678          5.8678          0.0000          0.0000          0.0000
   9.7000          5.8541          5.8541          5.8541          0.0000          0.0000          0.0000
   9.7200          5.8389          5.8389          5.8389          0.0000          0.0000          0.0000
   9.7400          5.8220          5.8220          5.8220          0.0000          0.0000          0.0000
   9.7600          5.8035          5.8035          5.8035          0.0000          0.0000          0.0000
   9.7800          5.7834          5.7834          5.7834          0.0000          0.0000          0.0000
   9.8000          5.7621          5.7621          5.7621          0.0000          0.0000          0.0000
   9.8200          5.7399          5.7399          5.7399          0.0000          0.0000          0.0000
   9.8400          5.7175          5.7175          5.7175          0.0000          0.0000          0.0000
   9.8600          5.6954          5.6954          5.6954          0.0000          0.0000          0.0000
   9.8800          5.6743          5.6743          5.6743          0.0000          0.0000          0.0000
   9.9000          5.6549          5.6549          5.6549          0.0000          0.0000          0.0000
   9.9200          5.6375          5.6375          5.6375          0.0000          0.0000          0.0000
   9.9400          5.6227          5.6227          5.6227          0.0000          0.0000          0.0000
   9.9600          5.6108          5.6108          5.6108          0.0000          0.0000          0.0000
   9.9800          5.6017          5.6017          5.6017          0.0000          0.0000          0.0000
  10.0000          5.5953          5.5953          5.5953          0.0000          0.0000          0.0000
  10.0200          5.5912          5.5912          5.5912          0.0000          0.0000          0.0000
  10.0400          5.5888          5.5888          5.5888          0.0000          0.0000          0.0000
  10.0600          5.5873          5.5873          5.5873          0.0000          0.0000          0.0000
  10.0800          5.5861          5.5861          5.5861          0.0000          0.0000          0.0000
  10.1000          5.5844          5.5844          5.5844          0.0000          0.0000          0.0000
  10.1200          5.5818          5.5818          5.5818          0.0000          0.0000          0.0000
  10.1400          5.5778          5.5778          5.5778          0.0000          0.0000          0.0000
  10.1600          5.5725          5.5725          5.5725          0.0000          0.0000          0.0000
  10.1800          5.5660          5.5660          5.5660          0.0000          0.0000          0.0000
  10.2000          5.5586          5.5586          5.5586          0.0000          0.0000          0.0000
  10.2200          5.5506          5.5506          5.5506          0.0000          0.0000          0.0000
  10.2400          5.5425          5.5425          5.5425          0.0000          0.0000          0.0000
  10.2600          5.5345          5.5345          5.5345          0.0000          0.0000          0.0000
  10.2800          5.5266          5.5266          5.5266          0.0000          0.0000          0.0000
  10.3000          5.5190          5.5190          5.5190          0.0000          0.0000          0.0000
  10.3200          5.5112          5.5112          5.5112          0.0000          0.0000          0.0000
  10.3400          5.5029          5.5029          5.5029          0.0000          0.0000          0.0000
  10.3600          5.4936          5.4936          5.4936          0.0000          0.0000          0.0000
  10.3800          5.4828          5.4828          5.4828          0.0000          0.0000          0.0000
  10.4000          5.4703          5.4703          5.4703          0.0000          0.0000          0.0000
  10.4200          5.4561          5.4561          5.4561          0.0000          0.0000          0.0000
  10.4400          5.4402          5.4402          5.4402          0.0000          0.0000          0.0000
  10.4600          5.4230          5.4230          5.4230          0.0000          0.0000          0.0000
  10.4800          5.4050          5.4050          5.4050          0.0000          0.0000          0.0000
  10.5000          5.3868          5.3868          5.3868          0.0000          0.0000          0.0000
  10.5200          5.3689          5.3689          5.3689          0.0000          0.0000          0.0000
  10.5400          5.3518          5.3518          5.3518          0.0000          0.0000          0.0000
  10.5600          5.3358          5.3358          5.3358          0.0000          0.0000          0.0000
  10.5800          5.3213          5.3213          5.3213          0.0000          0.0000          0.0000
  10.6000          5.3084          5.3084          5.3084          0.0000          0.0000          0.0000
  10.6200          5.2972          5.2972          5.2972          0.0000          0.0000          0.0000
  10.6400          5.2876          5.2876          5.2876          0.0000          0.0000          0.0000
  10.6600          5.2795          5.2795          5.2795          0.0000          0.0000          0.0000
  10.6800          5.2727          5.2727          5.2727          0.0000          0.0000          0.0000
  10.7000          5.2670          5.2670          5.2670          0.0000          0.0000          0.0000
  10.7200          5.2621          5.2621          5.2621          0.0000          0.0000          0.0000
  10.7400          5.2576          5.2576          5.2576          0.0000          0.0000          0.0000
  10.7600          5.2533          5.2533          5.2533          0.0000          0.0000          0.0000
  10.7800          5.2487          5.2487          5.2487          0.0000          0.0000          0.0000
  10.8000          5.2438          5.2438          5.2438          0.0000          0.0000          0.0000
  10.8200          5.2383          5.2383          5.2383          0.0000          0.0000          0.0000
  10.8400          5.2322          5.2322          5.2322          0.0000          0.0000          0.0000
  10.8600          5.2254          5.2254          5.2254          0.0000          0.0000          0.0000
  10.8800          5.2181          5.2181          5.2181          0.0000          0.0000          0.0000
  10.9000          5.2104          5.2104          5.2104          0.0000          0.0000          0.0000
  10.9200          5.2024          5.2024          5.2024          0.0000          0.0000          0.0000
  10.9400          5.1940          5.1940          5.1940          0.0000          0.0000          0.0000
  10.9600          5.1854          5.1854          5.1854          0.0000          0.0000          0.0000
  10.9800          5.1766          5.1766          5.1766          0.0000          0.0000          0.0000
  11.0000          5.1675          5.1675          5.1675          0.0000          0.0000          0.0000
  11.0200          5.1581          5.1581          5.1581          0.0000          0.0000          0.0000
  11.0400          5.1486          5.1486          5.1486          0.0000          0.0000          0.0000
  11.0600          5.1388          5.1388          5.1388          0.0000          0.0000          0.0000
  11.0800          5.1286          5.1286          5.1286          0.0000          0.0000          0.0000
  11.1000          5.1182          5.1182          5.1182          0.0000          0.0000          0.0000
  11.1200          5.1072          5.1072          5.1072          0.0000          0.0000          0.0000
  11.1400          5.0957          5.0957          5.0957          0.0000          0.0000          0.0000
  11.1600          5.0837          5.0837          5.0837          0.0000          0.0000          0.0000
  11.1800          5.0712          5.0712          5.0712          0.0000          0.0000          0.0000
  11.2000          5.0583          5.0583          5.0583          0.0000          0.0000          0.0000
  11.2200          5.0452          5.0452          5.0452          0.0000          0.0000          0.0000
  11.2400          5.0322          5.0322          5.0322          0.0000          0.0000          0.0000
  11.2600          5.0196          5.0196          5.0196          0.0000          0.0000          0.0000
  11.2800          5.0076          5.0076          5.0076          0.0000          0.0000          0.0000
  11.3000          4.9963          4.9963          4.9963          0.0000          0.0000          0.0000
  11.3200          4.9857          4.9857          4.9857          0.0000          0.0000          0.0000
  11.3400          4.9759          4.9759          4.9759          0.0000          0.0000          0.0000
  11.3600          4.9666          4.9666          4.9666          0.0000          0.0000          0.0000
  11.3800          4.9579          4.9579          4.9579          0.0000          0.0000          0.0000
  11.4000          4.9496          4.9496          4.9496          0.0000          0.0000          0.0000
  11.4200          4.9416          4.9416          4.9416          0.0000          0.0000          0.0000
  11.4400          4.9340          4.9340          4.9340          0.0000          0.0000          0.0000
  11.4600          4.9266          4.9266          4.9266          0.0000          0.0000          0.0000
  11.4800          4.9196          4.9196          4.9196          0.0000          0.0000          0.0000
  11.5000          4.9129          4.9129          4.9129          0.0000          0.0000          0.0000
  11.5200          4.9064          4.9064          4.9064          0.0000          0.0000          0.0000
  11.5400          4.9003          4.9003          4.9003          0.0000          0.0000          0.0000
  11.5600          4.8945          4.8945          4.8945          0.0000          0.0000          0.0000
  11.5800          4.8890          4.8890          4.8890          0.0000          0.0000          0.0000
  11.6000          4.8837          4.8837          4.8837          0.0000          0.0000          0.0000
  11.6200          4.8787          4.8787          4.8787          0.0000          0.0000          0.0000
  11.6400          4.8739          4.8739          4.8739          0.0000          0.0000          0.0000
  11.6600          4.8693          4.8693          4.8693          0.0000          0.0000          0.0000
  11.6800          4.8649          4.8649          4.8649          0.0000          0.0000          0.0000
  11.7000          4.8607          4.8607          4.8607          0.0000          0.0000          0.0000
  11.7200          4.8566          4.8566          4.8566          0.0000          0.0000          0.0000
  11.7400          4.8527          4.8527          4.8527          0.0000          0.0000          0.0000
  11.7600          4.8490          4.8490          4.8490          0.0000          0.0000          0.0000
  11.7800          4.8455          4.8455          4.8455          0.0000          0.0000          0.0000
  11.8000          4.8418          4.8418          4.8418          0.0000          0.0000          0.0000
  11.8200          4.8379          4.8379          4.8379          0.0000          0.0000          0.0000
  11.8400          4.8333          4.8333          4.8333          0.0000          0.0000          0.0000
  11.8600          4.8279          4.8279          4.8279          0.0000          0.0000          0.0000
  11.8800          4.8212          4.8212          4.8212          0.0000          0.0000          0.0000
  11.9000          4.8132          4.8132          4.8132          0.0000          0.0000          0.0000
  11.9200          4.8038          4.8038          4.8038          0.0000          0.0000          0.0000
  11.9400          4.7931          4.7931          4.7931          0.0000          0.0000          0.0000
  11.9600          4.7814          4.7814          4.7814          0.0000          0.0000          0.0000
  11.9800          4.7690          4.7690          4.7690          0.0000          0.0000          0.0000
  12.0000          4.7563          4.7563          4.7563          0.0000          0.0000          0.0000
  12.0200          4.7437          4.7437          4.7437          0.0000          0.0000          0.0000
  12.0400          4.7314          4.7314          4.7314          0.0000          0.0000          0.0000
  12.0600          4.7198          4.7198          4.7198          0.0000          0.0000          0.0000
  12.0800          4.7090          4.7090          4.7090          0.0000          0.0000          0.0000
  12.1000          4.6990          4.6990          4.6990          0.0000          0.0000          0.0000
  12.1200          4.6899          4.6899          4.6899          0.0000          0.0000          0.0000
  12.1400          4.6817          4.6817          4.6817          0.0000          0.0000          0.0000
  12.1600          4.6741          4.6741          4.6741          0.0000          0.0000          0.0000
  12.1800          4.6671          4.6671          4.6671          0.0000          0.0000          0.0000
  12.2000          4.6605          4.6605          4.6605          0.0000          0.0000          0.0000
  12.2200          4.6542          4.6542          4.6542          0.0000          0.0000          0.0000
  12.2400          4.6480          4.6480          4.6480          0.0000          0.0000          0.0000
  12.2600          4.6417          4.6417          4.6417          0.0000          0.0000          0.0000
  12.2800          4.6354          4.6354          4.6354          0.0000          0.0000          0.0000
  12.3000          4.6288          4.6288          4.6288          0.0000          0.0000          0.0000
  12.3200          4.6220          4.6220          4.6220          0.0000          0.0000          0.0000
  12.3400          4.6150          4.6150          4.6150          0.0000          0.0000          0.0000
  12.3600          4.6080          4.6080          4.6080          0.0000          0.0000          0.0000
  12.3800          4.6011          4.6011          4.6011          0.0000          0.0000          0.0000
  12.4000          4.5943          4.5943          4.5943          0.0000          0.0000          0.0000
  12.4200          4.5878          4.5878          4.5878          0.0000          0.0000          0.0000
  12.4400          4.5817          4.5817          4.5817          0.0000          0.0000          0.0000
  12.4600          4.5758          4.5758          4.5758          0.0000          0.0000          0.0000
  12.4800          4.5700          4.5700          4.5700          0.0000          0.0000          0.0000
  12.5000          4.5641          4.5641          4.5641          0.0000          0.0000          0.0000
  12.5200          4.5580          4.5580          4.5580          0.0000          0.0000          0.0000
  12.5400          4.5515          4.5515          4.5515          0.0000          0.0000          0.0000
  12.5600          4.5443          4.5443          4.5443          0.0000          0.0000          0.0000
  12.5800          4.5364          4.5364          4.5364          0.0000          0.0000          0.0000
  12.6000          4.5277          4.5277          4.5277          0.0000          0.0000          0.0000
  12.6200          4.5183          4.5183          4.5183          0.0000          0.0000          0.0000
  12.6400          4.5084          4.5084          4.5084          0.0000          0.0000          0.0000
  12.6600          4.4981          4.4981          4.4981          0.0000          0.0000          0.0000
  12.6800          4.4875          4.4875          4.4875          0.0000          0.0000          0.0000
  12.7000          4.4769          4.4769          4.4769          0.0000          0.0000          0.0000
  12.7200          4.4664          4.4664          4.4664          0.0000          0.0000          0.0000
  12.7400          4.4562          4.4562          4.4562          0.0000          0.0000          0.0000
  12.7600          4.4464          4.4464          4.4464          0.0000          0.0000          0.0000
  12.7800          4.4371          4.4371          4.4371          0.0000          0.0000          0.0000
  12.8000          4.4285          4.4285          4.4285          0.0000          0.0000          0.0000
  12.8200          4.4205          4.4205          4.4205          0.0000          0.0000          0.0000
  12.8400          4.4131          4.4131          4.4131          0.0000          0.0000          0.0000
  12.8600          4.4064          4.4064          4.4064          0.0000          0.0000          0.0000
  12.8800          4.4002          4.4002          4.4002          0.0000          0.0000          0.0000
  12.9000          4.3944          4.3944          4.3944          0.0000          0.0000          0.0000
  12.9200          4.3887          4.3887          4.3887          0.0000          0.0000          0.0000
  12.9400          4.3831          4.3831          4.3831          0.0000          0.0000          0.0000
  12.9600          4.3774          4.3774          4.3774          0.0000          0.0000          0.0000
  12.9800          4.3714          4.3714          4.3714          0.0000          0.0000          0.0000
  13.0000          4.3653          4.3653          4.3653          0.0000          0.0000          0.0000
  13.0200          4.3589          4.3589          4.3589          0.0000          0.0000          0.0000
  13.0400          4.3523          4.3523          4.3523          0.0000          0.0000          0.0000
  13.0600          4.3457          4.3457          4.3457          0.0000          0.0000          0.0000
  13.0800          4.3390          4.3390          4.3390          0.0000          0.0000          0.0000
  13.1000          4.3324          4.3324          4.3324          0.0000          0.0000          0.0000
  13.1200          4.3258          4.3258          4.3258          0.0000          0.0000          0.0000
  13.1400          4.3192          4.3192          4.3192          0.0000          0.0000          0.0000
  13.1600          4.3128          4.3128          4.3128          0.0000          0.0000          0.0000
  13.1800          4.3064          4.3064          4.3064          0.0000          0.0000          0.0000
  13.2000          4.3002          4.3002          4.3002          0.0000          0.0000          0.0000
  13.2200          4.2943          4.2943          4.2943          0.0000          0.0000          0.0000
  13.2400          4.2887          4.2887          4.2887          0.0000          0.0000          0.0000
  13.2600          4.2834          4.2834          4.2834          0.0000          0.0000          0.0000
  13.2800          4.2786          4.2786          4.2786          0.0000          0.0000          0.0000
  13.3000          4.2742          4.2742          4.2742          0.0000          0.0000          0.0000
  13.3200          4.2701          4.2701          4.2701          0.0000          0.0000          0.0000
  13.3400          4.2663          4.2663          4.2663          0.0000          0.0000          0.0000
  13.3600          4.2625          4.2625          4.2625          0.0000          0.0000          0.0000
  13.3800          4.2588          4.2588          4.2588          0.0000          0.0000          0.0000
  13.4000          4.2548          4.2548          4.2548          0.0000          0.0000          0.0000
  13.4200          4.2505          4.2505          4.2505          0.0000          0.0000          0.0000
  13.4400          4.2457          4.2457          4.2457          0.0000          0.0000          0.0000
  13.4600          4.2403          4.2403          4.2403          0.0000          0.0000          0.0000
  13.4800          4.2343          4.2343          4.2343          0.0000          0.0000          0.0000
  13.5000          4.2276          4.2276          4.2276          0.0000          0.0000          0.0000
  13.5200          4.2203          4.2203          4.2203          0.0000          0.0000          0.0000
  13.5400          4.2124          4.2124          4.2124          0.0000          0.0000          0.0000
  13.5600          4.2040          4.2040          4.2040          0.0000          0.0000          0.0000
  13.5800          4.1953          4.1953          4.1953          0.0000          0.0000          0.0000
  13.6000          4.1864          4.1864          4.1864          0.0000          0.0000          0.0000
  13.6200          4.1774          4.1774          4.1774          0.0000          0.0000          0.0000
  13.6400          4.1683          4.1683          4.1683          0.0000          0.0000          0.0000
  13.6600          4.1593          4.1593          4.1593          0.0000          0.0000          0.0000
  13.6800          4.1504          4.1504          4.1504          0.0000          0.0000          0.0000
  13.7000          4.1416          4.1416          4.1416          0.0000          0.0000          0.0000
  13.7200          4.1331          4.1331          4.1331          0.0000          0.0000          0.0000
  13.7400          4.1249          4.1249          4.1249          0.0000          0.0000          0.0000
  13.7600          4.1171          4.1171          4.1171          0.0000          0.0000          0.0000
  13.7800          4.1098          4.1098          4.1098          0.0000          0.0000          0.0000
  13.8000          4.1030          4.1030          4.1030          0.0000          0.0000          0.0000
  13.8200          4.0969          4.0969          4.0969          0.0000          0.0000          0.0000
  13.8400          4.0913          4.0913          4.0913          0.0000          0.0000          0.0000
  13.8600          4.0863          4.0863          4.0863          0.0000          0.0000          0.0000
  13.8800          4.0818          4.0818          4.0818          0.0000          0.0000          0.0000
  13.9000          4.0777          4.0777          4.0777          0.0000          0.0000          0.0000
  13.9200          4.0739          4.0739          4.0739          0.0000          0.0000          0.0000
  13.9400          4.0703          4.0703          4.0703          0.0000          0.0000          0.0000
  13.9600          4.0666          4.0666          4.0666          0.0000          0.0000          0.0000
  13.9800          4.0627          4.0627          4.0627          0.0000          0.0000          0.0000
  14.0000          4.0586          4.0586          4.0586          0.0000          0.0000          0.0000
  14.0200          4.0542          4.0542          4.0542          0.0000          0.0000          0.0000
  14.0400          4.0495          4.0495          4.0495          0.0000          0.0000          0.0000
  14.0600          4.0445          4.0445          4.0445          0.0000          0.0000          0.0000
  14.0800          4.0393          4.0393          4.0393          0.0000          0.0000          0.0000
  14.1000          4.0339          4.0339          4.0339          0.0000          0.0000          0.0000
  14.1200          4.0284          4.0284          4.0284          0.0000          0.0000          0.0000
  14.1400          4.0228          4.0228          4.0228          0.0000          0.0000          0.0000
  14.1600          4.0172          4.0172          4.0172          0.0000          0.0000          0.0000
  14.1800          4.0114          4.0114          4.0114          0.0000          0.0000          0.0000
  14.2000          4.0056          4.0056          4.0056          0.0000          0.0000          0.0000
  14.2200          3.9996          3.9996          3.9996          0.0000          0.0000          0.0000
  14.2400          3.9934          3.9934          3.9934          0.0000          0.0000          0.0000
  14.2600          3.9871          3.9871          3.9871          0.0000          0.0000          0.0000
  14.2800          3.9806          3.9806          3.9806          0.0000          0.0000          0.0000
  14.3000          3.9739          3.9739          3.9739          0.0000          0.0000          0.0000
  14.3200          3.9672          3.9672          3.9672          0.0000          0.0000          0.0000
  14.3400          3.9603          3.9603          3.9603          0.0000          0.0000          0.0000
  14.3600          3.9535          3.9535          3.9535          0.0000          0.0000          0.0000
  14.3800          3.9466          3.9466          3.9466          0.0000          0.0000          0.0000
  14.4000          3.9397          3.9397          3.9397          0.0000          0.0000          0.0000
  14.4200          3.9329          3.9329          3.9329          0.0000          0.0000          0.0000
  14.4400          3.9263          3.9263          3.9263          0.0000          0.0000          0.0000
  14.4600          3.9199          3.9199          3.9199          0.0000          0.0000          0.0000
  14.4800          3.9140          3.9140          3.9140          0.0000          0.0000          0.0000
  14.5000          3.9085          3.9085          3.9085          0.0000          0.0000          0.0000
  14.5200          3.9035          3.9035          3.9035          0.0000          0.0000          0.0000
  14.5400          3.8990          3.8990          3.8990          0.0000          0.0000          0.0000
  14.5600          3.8951          3.8951          3.8951          0.0000          0.0000          0.0000
  14.5800          3.8916          3.8916          3.8916          0.0000          0.0000          0.0000
  14.6000          3.8883          3.8883          3.8883          0.0000          0.0000          0.0000
  14.6200          3.8853          3.8853          3.8853          0.0000          0.0000          0.0000
  14.6400          3.8822          3.8822          3.8822          0.0000          0.0000          0.0000
  14.6600          3.8791          3.8791          3.8791          0.0000          0.0000          0.0000
  14.6800          3.8758          3.8758          3.8758          0.0000          0.0000          0.0000
  14.7000          3.8724          3.8724          3.8724          0.0000          0.0000          0.0000
  14.7200          3.8688          3.8688          3.8688          0.0000          0.0000          0.0000
  14.7400          3.8652          3.8652          3.8652          0.0000          0.0000          0.0000
  14.7600          3.8615          3.8615          3.8615          0.0000          0.0000          0.0000
  14.7800          3.8578          3.8578          3.8578          0.0000          0.0000          0.0000
  14.8000          3.8541          3.8541          3.8541          0.0000          0.0000          0.0000
  14.8200          3.8504          3.8504          3.8504          0.0000          0.0000          0.0000
  14.8400          3.8466          3.8466          3.8466          0.0000          0.0000          0.0000
  14.8600          3.8427          3.8427          3.8427          0.0000          0.0000          0.0000
  14.8800          3.8387          3.8387          3.8387          0.0000          0.0000          0.0000
  14.9000          3.8346          3.8346          3.8346          0.0000          0.0000          0.0000
  14.9200          3.8303          3.8303          3.8303          0.0000          0.0000          0.0000
  14.9400          3.8258          3.8258          3.8258          0.0000          0.0000          0.0000
  14.9600          3.8212          3.8212          3.8212          0.0000          0.0000          0.0000
  14.9800          3.8164          3.8164          3.8164          0.0000          0.0000          0.0000
  15.0000          3.8114          3.8114          3.8114          0.0000          0.0000          0.0000
  15.0200          3.8061          3.8061          3.8061          0.0000          0.0000          0.0000
  15.0400          3.8004          3.8004          3.8004          0.0000          0.0000          0.0000
  15.0600          3.7944          3.7944          3.7944          0.0000          0.0000          0.0000
  15.0800          3.7881          3.7881          3.7881          0.0000          0.0000          0.0000
  15.1000          3.7816          3.7816          3.7816          0.0000          0.0000          0.0000
  15.1200          3.7750          3.7750          3.7750          0.0000          0.0000          0.0000
  15.1400          3.7682          3.7682          3.7682          0.0000          0.0000          0.0000
  15.1600          3.7616          3.7616          3.7616          0.0000          0.0000          0.0000
  15.1800          3.7550          3.7550          3.7550          0.0000          0.0000          0.0000
  15.2000          3.7485          3.7485          3.7485          0.0000          0.0000          0.0000
  15.2200          3.7421          3.7421          3.7421          0.0000          0.0000          0.0000
  15.2400          3.7358          3.7358          3.7358          0.0000          0.0000          0.0000
  15.2600          3.7295          3.7295          3.7295          0.0000          0.0000          0.0000
  15.2800          3.7234          3.7234          3.7234          0.0000          0.0000          0.0000
  15.3000          3.7173          3.7173          3.7173          0.0000          0.0000          0.0000
  15.3200          3.7113          3.7113          3.7113          0.0000          0.0000          0.0000
  15.3400          3.7055          3.7055          3.7055          0.0000          0.0000          0.0000
  15.3600          3.6999          3.6999          3.6999          0.0000          0.0000          0.0000
  15.3800          3.6945          3.6945          3.6945          0.0000          0.0000          0.0000
  15.4000          3.6892          3.6892          3.6892          0.0000          0.0000          0.0000
  15.4200          3.6840          3.6840          3.6840          0.0000          0.0000          0.0000
  15.4400          3.6790          3.6790          3.6790          0.0000          0.0000          0.0000
  15.4600          3.6739          3.6739          3.6739          0.0000          0.0000          0.0000
  15.4800          3.6689          3.6689          3.6689          0.0000          0.0000          0.0000
  15.5000          3.6638          3.6638          3.6638          0.0000          0.0000          0.0000
  15.5200          3.6588          3.6588          3.6588          0.0000          0.0000          0.0000
  15.5400          3.6538          3.6538          3.6538          0.0000          0.0000          0.0000
  15.5600          3.6488          3.6488          3.6488          0.0000          0.0000          0.0000
  15.5800          3.6440          3.6440          3.6440          0.0000          0.0000          0.0000
  15.6000          3.6394          3.6394          3.6394          0.0000          0.0000          0.0000
  15.6200          3.6350          3.6350          3.6350          0.0000          0.0000          0.0000
  15.6400          3.6309          3.6309          3.6309          0.0000          0.0000          0.0000
  15.6600          3.6271          3.6271          3.6271          0.0000          0.0000          0.0000
  15.6800          3.6237          3.6237          3.6237          0.0000          0.0000          0.0000
  15.7000          3.6206          3.6206          3.6206          0.0000          0.0000          0.0000
  15.7200          3.6178          3.6178          3.6178          0.0000          0.0000          0.0000
  15.7400          3.6152          3.6152          3.6152          0.0000          0.0000          0.0000
  15.7600          3.6126          3.6126          3.6126          0.0000          0.0000          0.0000
  15.7800          3.6098          3.6098          3.6098          0.0000          0.0000          0.0000
  15.8000          3.6068          3.6068          3.6068          0.0000          0.0000          0.0000
  15.8200          3.6033          3.6033          3.6033          0.0000          0.0000          0.0000
  15.8400          3.5993          3.5993          3.5993          0.0000          0.0000          0.0000
  15.8600          3.5948          3.5948          3.5948          0.0000          0.0000          0.0000
  15.8800          3.5896          3.5896          3.5896          0.0000          0.0000          0.0000
  15.9000          3.5838          3.5838          3.5838          0.0000          0.0000          0.0000
  15.9200          3.5776          3.5776          3.5776          0.0000          0.0000          0.0000
  15.9400          3.5709          3.5709          3.5709          0.0000          0.0000          0.0000
  15.9600          3.5639          3.5639          3.5639          0.0000          0.0000          0.0000
  15.9800          3.5567          3.5567          3.5567          0.0000          0.0000          0.0000
  16.0000          3.5495          3.5495          3.5495          0.0000          0.0000          0.0000
  16.0200          3.5424          3.5424          3.5424          0.0000          0.0000          0.0000
  16.0400          3.5354          3.5354          3.5354          0.0000          0.0000          0.0000
  16.0600          3.5286          3.5286          3.5286          0.0000          0.0000          0.0000
  16.0800          3.5222          3.5222          3.5222          0.0000          0.0000          0.0000
  16.1000          3.5162          3.5162          3.5162          0.0000          0.0000          0.0000
  16.1200          3.5106          3.5106          3.5106          0.0000          0.0000          0.0000
  16.1400          3.5054          3.5054          3.5054          0.0000          0.0000          0.0000
  16.1600          3.5006          3.5006          3.5006          0.0000          0.0000          0.0000
  16.1800          3.4961          3.4961          3.4961          0.0000          0.0000          0.0000
  16.2000          3.4918          3.4918          3.4918          0.0000          0.0000          0.0000
  16.2200          3.4875          3.4875          3.4875          0.0000          0.0000          0.0000
  16.2400          3.4833          3.4833          3.4833          0.0000          0.0000          0.0000
  16.2600          3.4788          3.4788          3.4788          0.0000          0.0000          0.0000
  16.2800          3.4742          3.4742          3.4742          0.0000          0.0000          0.0000
  16.3000          3.4693          3.4693          3.4693          0.0000          0.0000          0.0000
  16.3200          3.4642          3.4642          3.4642          0.0000          0.0000          0.0000
  16.3400          3.4590          3.4590          3.4590          0.0000          0.0000          0.0000
  16.3600          3.4536          3.4536          3.4536          0.0000          0.0000          0.0000
  16.3800          3.4481          3.4481          3.4481          0.0000          0.0000          0.0000
  16.4000          3.4426          3.4426          3.4426          0.0000          0.0000          0.0000
  16.4200          3.4371          3.4371          3.4371          0.0000          0.0000          0.0000
  16.4400          3.4317          3.4317          3.4317          0.0000          0.0000          0.0000
  16.4600          3.4264          3.4264          3.4264          0.0000          0.0000          0.0000
  16.4800          3.4211          3.4211          3.4211          0.0000          0.0000          0.0000
  16.5000          3.4159          3.4159          3.4159          0.0000          0.0000          0.0000
  16.5200          3.4108          3.4108          3.4108          0.0000          0.0000          0.0000
  16.5400          3.4057          3.4057          3.4057          0.0000          0.0000          0.0000
  16.5600          3.4004          3.4004          3.4004          0.0000          0.0000          0.0000
  16.5800          3.3951          3.3951          3.3951          0.0000          0.0000          0.0000
  16.6000          3.3896          3.3896          3.3896          0.0000          0.0000          0.0000
  16.6200          3.3839          3.3839          3.3839          0.0000          0.0000          0.0000
  16.6400          3.3781          3.3781          3.3781          0.0000          0.0000          0.0000
  16.6600          3.3721          3.3721          3.3721          0.0000          0.0000          0.0000
  16.6800          3.3661          3.3661          3.3661          0.0000          0.0000          0.0000
  16.7000          3.3602          3.3602          3.3602          0.0000          0.0000          0.0000
  16.7200          3.3543          3.3543          3.3543          0.0000          0.0000          0.0000
  16.7400          3.3488          3.3488          3.3488          0.0000          0.0000          0.0000
  16.7600          3.3435          3.3435          3.3435          0.0000          0.0000          0.0000
  16.7800          3.3386          3.3386          3.3386          0.0000          0.0000          0.0000
  16.8000          3.3340          3.3340          3.3340          0.0000          0.0000          0.0000
  16.8200          3.3297          3.3297          3.3297          0.0000          0.0000          0.0000
  16.8400          3.3256          3.3256          3.3256          0.0000          0.0000          0.0000
  16.8600          3.3216          3.3216          3.3216          0.0000          0.0000          0.0000
  16.8800          3.3177          3.3177          3.3177          0.0000          0.0000          0.0000
  16.9000          3.3137          3.3137          3.3137          0.0000          0.0000          0.0000
  16.9200          3.3096          3.3096          3.3096          0.0000          0.0000          0.0000
  16.9400          3.3055          3.3055          3.3055          0.0000          0.0000          0.0000
  16.9600          3.3012          3.3012          3.3012          0.0000          0.0000          0.0000
  16.9800          3.2970          3.2970          3.2970          0.0000          0.0000          0.0000
  17.0000          3.2927          3.2927          3.2927          0.0000          0.0000          0.0000
  17.0200          3.2884          3.2884          3.2884          0.0000          0.0000          0.0000
  17.0400          3.2841          3.2841          3.2841          0.0000          0.0000          0.0000
  17.0600          3.2797          3.2797          3.2797          0.0000          0.0000          0.0000
  17.0800          3.2752          3.2752          3.2752          0.0000          0.0000          0.0000
  17.1000          3.2707          3.2707          3.2707          0.0000          0.0000          0.0000
  17.1200          3.2661          3.2661          3.2661          0.0000          0.0000          0.0000
  17.1400          3.2614          3.2614          3.2614          0.0000          0.0000          0.0000
  17.1600          3.2567          3.2567          3.2567          0.0000          0.0000          0.0000
  17.1800          3.2521          3.2521          3.2521          0.0000          0.0000          0.0000
  17.2000          3.2477          3.2477          3.2477          0.0000          0.0000          0.0000
  17.2200          3.2435          3.2435          3.2435          0.0000          0.0000          0.0000
  17.2400          3.2395          3.2395          3.2395          0.0000          0.0000          0.0000
  17.2600          3.2357          3.2357          3.2357          0.0000          0.0000          0.0000
  17.2800          3.2321          3.2321          3.2321          0.0000          0.0000          0.0000
  17.3000          3.2286          3.2286          3.2286          0.0000          0.0000          0.0000
  17.3200          3.2250          3.2250          3.2250          0.0000          0.0000          0.0000
  17.3400          3.2214          3.2214          3.2214          0.0000          0.0000          0.0000
  17.3600          3.2176          3.2176          3.2176          0.0000          0.0000          0.0000
  17.3800          3.2134          3.2134          3.2134          0.0000          0.0000          0.0000
  17.4000          3.2090          3.2090          3.2090          0.0000          0.0000          0.0000
  17.4200          3.2043          3.2043          3.2043          0.0000          0.0000          0.0000
  17.4400          3.1993          3.1993          3.1993          0.0000          0.0000          0.0000
  17.4600          3.1942          3.1942          3.1942          0.0000          0.0000          0.0000
  17.4800          3.1888          3.1888          3.1888          0.0000          0.0000          0.0000
  17.5000          3.1834          3.1834          3.1834          0.0000          0.0000          0.0000
  17.5200          3.1780          3.1780          3.1780          0.0000          0.0000          0.0000
  17.5400          3.1726          3.1726          3.1726          0.0000          0.0000          0.0000
  17.5600          3.1673          3.1673          3.1673          0.0000          0.0000          0.0000
  17.5800          3.1619          3.1619          3.1619          0.0000          0.0000          0.0000
  17.6000          3.1565          3.1565          3.1565          0.0000          0.0000          0.0000
  17.6200          3.1510          3.1510          3.1510          0.0000          0.0000          0.0000
  17.6400          3.1454          3.1454          3.1454          0.0000          0.0000          0.0000
  17.6600          3.1397          3.1397          3.1397          0.0000          0.0000          0.0000
  17.6800          3.1337          3.1337          3.1337          0.0000          0.0000          0.0000
  17.7000          3.1274          3.1274          3.1274          0.0000          0.0000          0.0000
  17.7200          3.1210          3.1210          3.1210          0.0000          0.0000          0.0000
  17.7400          3.1143          3.1143          3.1143          0.0000          0.0000          0.0000
  17.7600          3.1075          3.1075          3.1075          0.0000          0.0000          0.0000
  17.7800          3.1007          3.1007          3.1007          0.0000          0.0000          0.0000
  17.8000          3.0938          3.0938          3.0938          0.0000          0.0000          0.0000
  17.8200          3.0870          3.0870          3.0870          0.0000          0.0000          0.0000
  17.8400          3.0803          3.0803          3.0803          0.0000          0.0000          0.0000
  17.8600          3.0737          3.0737          3.0737          0.0000          0.0000          0.0000
  17.8800          3.0674          3.0674          3.0674          0.0000          0.0000          0.0000
  17.9000          3.0613          3.0613          3.0613          0.0000          0.0000          0.0000
  17.9200          3.0556          3.0556          3.0556          0.0000          0.0000          0.0000
  17.9400          3.0502          3.0502          3.0502          0.0000          0.0000          0.0000
  17.9600          3.0452          3.0452          3.0452          0.0000          0.0000          0.0000
  17.9800          3.0407          3.0407          3.0407          0.0000          0.0000          0.0000
  18.0000          3.0366          3.0366          3.0366          0.0000          0.0000          0.0000
  18.0200          3.0331          3.0331          3.0331          0.0000          0.0000          0.0000
  18.0400          3.0301          3.0301          3.0301          0.0000          0.0000          0.0000
  18.0600          3.0275          3.0275          3.0275          0.0000          0.0000          0.0000
  18.0800          3.0252          3.0252          3.0252          0.0000          0.0000          0.0000
  18.1000          3.0232          3.0232          3.0232          0.0000          0.0000          0.0000
  18.1200          3.0213          3.0213          3.0213          0.0000          0.0000          0.0000
  18.1400          3.0193          3.0193          3.0193          0.0000          0.0000          0.0000
  18.1600          3.0170          3.0170          3.0170          0.0000          0.0000          0.0000
  18.1800          3.0144          3.0144          3.0144          0.0000          0.0000          0.0000
  18.2000          3.0113          3.0113          3.0113          0.0000          0.0000          0.0000
  18.2200          3.0078          3.0078          3.0078          0.0000          0.0000          0.0000
  18.2400          3.0038          3.0038          3.0038          0.0000          0.0000          0.0000
  18.2600          2.9993          2.9993          2.9993          0.0000          0.0000          0.0000
  18.2800          2.9946          2.9946          2.9946          0.0000          0.0000          0.0000
  18.3000          2.9895          2.9895          2.9895          0.0000          0.0000          0.0000
  18.3200          2.9843          2.9843          2.9843          0.0000          0.0000          0.0000
  18.3400          2.9789          2.9789          2.9789          0.0000          0.0000          0.0000
  18.3600          2.9735          2.9735          2.9735          0.0000          0.0000          0.0000
  18.3800          2.9680          2.9680          2.9680          0.0000          0.0000          0.0000
  18.4000          2.9624          2.9624          2.9624          0.0000          0.0000          0.0000
  18.4200          2.9568          2.9568          2.9568          0.0000          0.0000          0.0000
  18.4400          2.9512          2.9512          2.9512          0.0000          0.0000          0.0000
  18.4600          2.9455          2.9455          2.9455          0.0000          0.0000          0.0000
  18.4800          2.9397          2.9397          2.9397          0.0000          0.0000          0.0000
  18.5000          2.9337          2.9337          2.9337          0.0000          0.0000          0.0000
  18.5200          2.9277          2.9277          2.9277          0.0000          0.0000          0.0000
  18.5400          2.9216          2.9216          2.9216          0.0000          0.0000          0.0000
  18.5600          2.9153          2.9153          2.9153          0.0000          0.0000          0.0000
  18.5800          2.9089          2.9089          2.9089          0.0000          0.0000          0.0000
  18.6000          2.9025          2.9025          2.9025          0.0000          0.0000          0.0000
  18.6200          2.8961          2.8961          2.8961          0.0000          0.0000          0.0000
  18.6400          2.8898          2.8898          2.8898          0.0000          0.0000          0.0000
  18.6600          2.8836          2.8836          2.8836          0.0000          0.0000          0.0000
  18.6800          2.8777          2.8777          2.8777          0.0000          0.0000          0.0000
  18.7000          2.8721          2.8721          2.8721          0.0000          0.0000          0.0000
  18.7200          2.8670          2.8670          2.8670          0.0000          0.0000          0.0000
  18.7400          2.8624          2.8624          2.8624          0.0000          0.0000          0.0000
  18.7600          2.8584          2.8584          2.8584          0.0000          0.0000          0.0000
  18.7800          2.8549          2.8549          2.8549          0.0000          0.0000          0.0000
  18.8000          2.8518          2.8518          2.8518          0.0000          0.0000          0.0000
  18.8200          2.8491          2.8491          2.8491          0.0000          0.0000          0.0000
  18.8400          2.8466          2.8466          2.8466          0.0000          0.0000          0.0000
  18.8600          2.8441          2.8441          2.8441          0.0000          0.0000          0.0000
  18.8800          2.8415          2.8415          2.8415          0.0000          0.0000          0.0000
  18.9000          2.8387          2.8387          2.8387          0.0000          0.0000          0.0000
  18.9200          2.8354          2.8354          2.8354          0.0000          0.0000          0.0000
  18.9400          2.8318          2.8318          2.8318          0.0000          0.0000          0.0000
  18.9600          2.8277          2.8277          2.8277          0.0000          0.0000          0.0000
  18.9800          2.8232          2.8232          2.8232          0.0000          0.0000          0.0000
  19.0000          2.8183          2.8183          2.8183          0.0000          0.0000          0.0000
  19.0200          2.8131          2.8131          2.8131          0.0000          0.0000          0.0000
  19.0400          2.8076          2.8076          2.8076          0.0000          0.0000          0.0000
  19.0600          2.8020          2.8020          2.8020          0.0000          0.0000          0.0000
  19.0800          2.7963          2.7963          2.7963          0.0000          0.0000          0.0000
  19.1000          2.7905          2.7905          2.7905          0.0000          0.0000          0.0000
  19.1200          2.7847          2.7847          2.7847          0.0000          0.0000          0.0000
  19.1400          2.7790          2.7790          2.7790          0.0000          0.0000          0.0000
  19.1600          2.7734          2.7734          2.7734          0.0000          0.0000          0.0000
  19.1800          2.7680          2.7680          2.7680          0.0000          0.0000          0.0000
  19.2000          2.7627          2.7627          2.7627          0.0000          0.0000          0.0000
  19.2200          2.7577          2.7577          2.7577          0.0000          0.0000          0.0000
  19.2400          2.7528          2.7528          2.7528          0.0000          0.0000          0.0000
  19.2600          2.7481          2.7481          2.7481          0.0000          0.0000          0.0000
  19.2800          2.7436          2.7436          2.7436          0.0000          0.0000          0.0000
  19.3000          2.7391          2.7391          2.7391          0.0000          0.0000          0.0000
  19.3200          2.7347          2.7347          2.7347          0.0000          0.0000          0.0000
  19.3400          2.7302          2.7302          2.7302          0.0000          0.0000          0.0000
  19.3600          2.7257          2.7257          2.7257          0.0000          0.0000          0.0000
  19.3800          2.7212          2.7212          2.7212          0.0000          0.0000          0.0000
  19.4000          2.7167          2.7167          2.7167          0.0000          0.0000          0.0000
  19.4200          2.7122          2.7122          2.7122          0.0000          0.0000          0.0000
  19.4400          2.7079          2.7079          2.7079          0.0000          0.0000          0.0000
  19.4600          2.7038          2.7038          2.7038          0.0000          0.0000          0.0000
  19.4800          2.7001          2.7001          2.7001          0.0000          0.0000          0.0000
  19.5000          2.6968          2.6968          2.6968          0.0000          0.0000          0.0000
  19.5200          2.6941          2.6941          2.6941          0.0000          0.0000          0.0000
  19.5400          2.6919          2.6919          2.6919          0.0000          0.0000          0.0000
  19.5600          2.6902          2.6902          2.6902          0.0000          0.0000          0.0000
  19.5800          2.6890          2.6890          2.6890          0.0000          0.0000          0.0000
  19.6000          2.6882          2.6882          2.6882          0.0000          0.0000          0.0000
  19.6200          2.6878          2.6878          2.6878          0.0000          0.0000          0.0000
  19.6400          2.6875          2.6875          2.6875          0.0000          0.0000          0.0000
  19.6600          2.6872          2.6872          2.6872          0.0000          0.0000          0.0000
  19.6800          2.6869          2.6869          2.6869          0.0000          0.0000          0.0000
  19.7000          2.6864          2.6864          2.6864          0.0000          0.0000          0.0000
  19.7200          2.6857          2.6857          2.6857          0.0000          0.0000          0.0000
  19.7400          2.6846          2.6846          2.6846          0.0000          0.0000          0.0000
  19.7600          2.6833          2.6833          2.6833          0.0000          0.0000          0.0000
  19.7800          2.6817          2.6817          2.6817          0.0000          0.0000          0.0000
  19.8000          2.6798          2.6798          2.6798          0.0000          0.0000          0.0000
  19.8200          2.6777          2.6777          2.6777          0.0000          0.0000          0.0000
  19.8400          2.6755          2.6755          2.6755          0.0000          0.0000          0.0000
  19.8600          2.6733          2.6733          2.6733          0.0000          0.0000          0.0000
  19.8800          2.6712          2.6712          2.6712          0.0000          0.0000          0.0000
  19.9000          2.6692          2.6692          2.6692          0.0000          0.0000          0.0000
  19.9200          2.6673          2.6673          2.6673          0.0000          0.0000          0.0000
  19.9400          2.6656          2.6656          2.6656          0.0000          0.0000          0.0000
  19.9600          2.6638          2.6638          2.6638          0.0000          0.0000          0.0000
  19.9800          2.6616          2.6616          2.6616          0.0000          0.0000          0.0000
  20.0000          2.6585          2.6585          2.6585          0.0000          0.0000          0.0000
