### linear absorption coefficients(in units of 10^5 cm-1)
   0.0000          0.0000          0.0000          0.0000          0.0000          0.0000          0.0000
   0.0200          0.0000          0.0000          0.0000          0.0000          0.0000          0.0000
   0.0400          0.0000          0.0000          0.0000          0.0000          0.0000          0.0000
   0.0600          0.0001          0.0001          0.0001          0.0000          0.0000          0.0000
   0.0800          0.0002          0.0002          0.0002          0.0000          0.0000          0.0000
   0.1000          0.0003          0.0003          0.0003          0.0000          0.0000          0.0000
   0.1200          0.0004          0.0004          0.0004          0.0000          0.0000          0.0000
   0.1400          0.0005          0.0005          0.0005          0.0000          0.0000          0.0000
   0.1600          0.0007          0.0007          0.0007          0.0000          0.0000          0.0000
   0.1800          0.0008          0.0008          0.0008          0.0000          0.0000          0.0000
   0.2000          0.0010          0.0010          0.0010          0.0000          0.0000          0.0000
   0.2200          0.0013          0.0013          0.0013          0.0000          0.0000          0.0000
   0.2400          0.0015          0.0015          0.0015          0.0000          0.0000          0.0000
   0.2600          0.0018          0.0018          0.0018          0.0000          0.0000          0.0000
   0.2800          0.0020          0.0020          0.0020          0.0000          0.0000          0.0000
   0.3000          0.0024          0.0024          0.0024          0.0000          0.0000          0.0000
   0.3200          0.0027          0.0027          0.0027          0.0000          0.0000          0.0000
   0.3400          0.0030          0.0030          0.0030          0.0000          0.0000          0.0000
   0.3600          0.0034          0.0034          0.0034          0.0000          0.0000          0.0000
   0.3800          0.0038          0.0038          0.0038          0.0000          0.0000          0.0000
   0.4000          0.0042          0.0042          0.0042          0.0000          0.0000          0.0000
   0.4200          0.0047          0.0047          0.0047          0.0000          0.0000          0.0000
   0.4400          0.0051          0.0051          0.0051          0.0000          0.0000          0.0000
   0.4600          0.0056          0.0056          0.0056          0.0000          0.0000          0.0000
   0.4800          0.0061          0.0061          0.0061          0.0000          0.0000          0.0000
   0.5000          0.0067          0.0067          0.0067          0.0000          0.0000          0.0000
   0.5200          0.0072          0.0072          0.0072          0.0000          0.0000          0.0000
   0.5400          0.0078          0.0078          0.0078          0.0000          0.0000          0.0000
   0.5600          0.0085          0.0085          0.0085          0.0000          0.0000          0.0000
   0.5800          0.0091          0.0091          0.0091          0.0000          0.0000          0.0000
   0.6000          0.0098          0.0098          0.0098          0.0000          0.0000          0.0000
   0.6200          0.0105          0.0105          0.0105          0.0000          0.0000          0.0000
   0.6400          0.0112          0.0112          0.0112          0.0000          0.0000          0.0000
   0.6600          0.0119          0.0119          0.0119          0.0000          0.0000          0.0000
   0.6800          0.0127          0.0127          0.0127          0.0000          0.0000          0.0000
   0.7000          0.0135          0.0135          0.0135          0.0000          0.0000          0.0000
   0.7200          0.0144          0.0144          0.0144          0.0000          0.0000          0.0000
   0.7400          0.0152          0.0152          0.0152          0.0000          0.0000          0.0000
   0.7600          0.0161          0.0161          0.0161          0.0000          0.0000          0.0000
   0.7800          0.0171          0.0171          0.0171          0.0000          0.0000          0.0000
   0.8000          0.0180          0.0180          0.0180          0.0000          0.0000          0.0000
   0.8200          0.0190          0.0190          0.0190          0.0000          0.0000          0.0000
   0.8400          0.0201          0.0201          0.0201          0.0000          0.0000          0.0000
   0.8600          0.0212          0.0212          0.0212          0.0000          0.0000          0.0000
   0.8800          0.0223          0.0223          0.0223          0.0000          0.0000          0.0000
   0.9000          0.0234          0.0234          0.0234          0.0000          0.0000          0.0000
   0.9200          0.0246          0.0246          0.0246          0.0000          0.0000          0.0000
   0.9400          0.0258          0.0258          0.0258          0.0000          0.0000          0.0000
   0.9600          0.0271          0.0271          0.0271          0.0000          0.0000          0.0000
   0.9800          0.0284          0.0284          0.0284          0.0000          0.0000          0.0000
   1.0000          0.0297          0.0297          0.0297          0.0000          0.0000          0.0000
   1.0200          0.0311          0.0311          0.0311          0.0000          0.0000          0.0000
   1.0400          0.0325          0.0325          0.0325          0.0000          0.0000          0.0000
   1.0600          0.0340          0.0340          0.0340          0.0000          0.0000          0.0000
   1.0800          0.0355          0.0355          0.0355          0.0000          0.0000          0.0000
   1.1000          0.0371          0.0371          0.0371          0.0000          0.0000          0.0000
   1.1200          0.0387          0.0387          0.0387          0.0000          0.0000          0.0000
   1.1400          0.0404          0.0404          0.0404          0.0000          0.0000          0.0000
   1.1600          0.0421          0.0421          0.0421          0.0000          0.0000          0.0000
   1.1800          0.0439          0.0439          0.0439          0.0000          0.0000          0.0000
   1.2000          0.0457          0.0457          0.0457          0.0000          0.0000          0.0000
   1.2200          0.0476          0.0476          0.0476          0.0000          0.0000          0.0000
   1.2400          0.0496          0.0496          0.0496          0.0000          0.0000          0.0000
   1.2600          0.0516          0.0516          0.0516          0.0000          0.0000          0.0000
   1.2800          0.0537          0.0537          0.0537          0.0000          0.0000          0.0000
   1.3000          0.0558          0.0558          0.0558          0.0000          0.0000          0.0000
   1.3200          0.0581          0.0581          0.0581          0.0000          0.0000          0.0000
   1.3400          0.0604          0.0604          0.0604          0.0000          0.0000          0.0000
   1.3600          0.0627          0.0627          0.0627          0.0000          0.0000          0.0000
   1.3800          0.0652          0.0652          0.0652          0.0000          0.0000          0.0000
   1.4000          0.0677          0.0677          0.0677          0.0000          0.0000          0.0000
   1.4200          0.0703          0.0703          0.0703          0.0000          0.0000          0.0000
   1.4400          0.0731          0.0731          0.0731          0.0000          0.0000          0.0000
   1.4600          0.0759          0.0759          0.0759          0.0000          0.0000          0.0000
   1.4800          0.0788          0.0788          0.0788          0.0000          0.0000          0.0000
   1.5000          0.0818          0.0818          0.0818          0.0000          0.0000          0.0000
   1.5200          0.0849          0.0849          0.0849          0.0000          0.0000          0.0000
   1.5400          0.0881          0.0881          0.0881          0.0000          0.0000          0.0000
   1.5600          0.0914          0.0914          0.0914          0.0000          0.0000          0.0000
   1.5800          0.0949          0.0949          0.0949          0.0000          0.0000          0.0000
   1.6000          0.0984          0.0984          0.0984          0.0000          0.0000          0.0000
   1.6200          0.1021          0.1021          0.1021          0.0000          0.0000          0.0000
   1.6400          0.1060          0.1060          0.1060          0.0000          0.0000          0.0000
   1.6600          0.1100          0.1100          0.1100          0.0000          0.0000          0.0000
   1.6800          0.1141          0.1141          0.1141          0.0000          0.0000          0.0000
   1.7000          0.1184          0.1184          0.1184          0.0000          0.0000          0.0000
   1.7200          0.1229          0.1229          0.1229          0.0000          0.0000          0.0000
   1.7400          0.1276          0.1276          0.1276          0.0000          0.0000          0.0000
   1.7600          0.1324          0.1324          0.1324          0.0000          0.0000          0.0000
   1.7800          0.1375          0.1375          0.1375          0.0000          0.0000          0.0000
   1.8000          0.1428          0.1428          0.1428          0.0000          0.0000          0.0000
   1.8200          0.1483          0.1483          0.1483          0.0000          0.0000          0.0000
   1.8400          0.1540          0.1540          0.1540          0.0000          0.0000          0.0000
   1.8600          0.1600          0.1600          0.1600          0.0000          0.0000          0.0000
   1.8800          0.1663          0.1663          0.1663          0.0000          0.0000          0.0000
   1.9000          0.1728          0.1728          0.1728          0.0000          0.0000          0.0000
   1.9200          0.1797          0.1797          0.1797          0.0000          0.0000          0.0000
   1.9400          0.1869          0.1869          0.1869          0.0000          0.0000          0.0000
   1.9600          0.1945          0.1945          0.1945          0.0000          0.0000          0.0000
   1.9800          0.2024          0.2024          0.2024          0.0000          0.0000          0.0000
   2.0000          0.2108          0.2108          0.2108          0.0000          0.0000          0.0000
   2.0200          0.2196          0.2196          0.2196          0.0000          0.0000          0.0000
   2.0400          0.2289          0.2289          0.2289          0.0000          0.0000          0.0000
   2.0600          0.2388          0.2388          0.2388          0.0000          0.0000          0.0000
   2.0800          0.2492          0.2492          0.2492          0.0000          0.0000          0.0000
   2.1000          0.2603          0.2603          0.2603          0.0000          0.0000          0.0000
   2.1200          0.2720          0.2720          0.2720          0.0000          0.0000          0.0000
   2.1400          0.2845          0.2845          0.2845          0.0000          0.0000          0.0000
   2.1600          0.2979          0.2979          0.2979          0.0000          0.0000          0.0000
   2.1800          0.3122          0.3122          0.3122          0.0000          0.0000          0.0000
   2.2000          0.3275          0.3275          0.3275          0.0000          0.0000          0.0000
   2.2200          0.3440          0.3440          0.3440          0.0000          0.0000          0.0000
   2.2400          0.3619          0.3619          0.3619          0.0000          0.0000          0.0000
   2.2600          0.3812          0.3812          0.3812          0.0000          0.0000          0.0000
   2.2800          0.4022          0.4022          0.4022          0.0000          0.0000          0.0000
   2.3000          0.4252          0.4252          0.4252          0.0000          0.0000          0.0000
   2.3200          0.4505          0.4505          0.4505          0.0000          0.0000          0.0000
   2.3400          0.4784          0.4784          0.4784          0.0000          0.0000          0.0000
   2.3600          0.5095          0.5095          0.5095          0.0000          0.0000          0.0000
   2.3800          0.5442          0.5442          0.5442          0.0000          0.0000          0.0000
   2.4000          0.5834          0.5834          0.5834          0.0000          0.0000          0.0000
   2.4200          0.6277          0.6277          0.6277          0.0000          0.0000          0.0000
   2.4400          0.6783          0.6783          0.6783          0.0000          0.0000          0.0000
   2.4600          0.7362          0.7362          0.7362          0.0000          0.0000          0.0000
   2.4800          0.8027          0.8027          0.8027          0.0000          0.0000          0.0000
   2.5000          0.8793          0.8793          0.8793          0.0000          0.0000          0.0000
   2.5200          0.9674          0.9674          0.9674          0.0000          0.0000          0.0000
   2.5400          1.0684          1.0684          1.0684          0.0000          0.0000          0.0000
   2.5600          1.1839          1.1839          1.1839          0.0000          0.0000          0.0000
   2.5800          1.3151          1.3151          1.3151          0.0000          0.0000          0.0000
   2.6000          1.4632          1.4632          1.4632          0.0000          0.0000          0.0000
   2.6200          1.6292          1.6292          1.6292          0.0000          0.0000          0.0000
   2.6400          1.8135          1.8135          1.8135          0.0000          0.0000          0.0000
   2.6600          2.0163          2.0163          2.0163          0.0000          0.0000          0.0000
   2.6800          2.2370          2.2370          2.2370          0.0000          0.0000          0.0000
   2.7000          2.4741          2.4741          2.4741          0.0000          0.0000          0.0000
   2.7200          2.7253          2.7253          2.7253          0.0000          0.0000          0.0000
   2.7400          2.9873          2.9873          2.9873          0.0000          0.0000          0.0000
   2.7600          3.2561          3.2561          3.2561          0.0000          0.0000          0.0000
   2.7800          3.5272          3.5272          3.5272          0.0000          0.0000          0.0000
   2.8000          3.7961          3.7961          3.7961          0.0000          0.0000          0.0000
   2.8200          4.0587          4.0587          4.0587          0.0000          0.0000          0.0000
   2.8400          4.3114          4.3114          4.3114          0.0000          0.0000          0.0000
   2.8600          4.5516          4.5516          4.5516          0.0000          0.0000          0.0000
   2.8800          4.7779          4.7779          4.7779          0.0000          0.0000          0.0000
   2.9000          4.9895          4.9895          4.9895          0.0000          0.0000          0.0000
   2.9200          5.1865          5.1865          5.1865          0.0000          0.0000          0.0000
   2.9400          5.3698          5.3698          5.3698          0.0000          0.0000          0.0000
   2.9600          5.5406          5.5406          5.5406          0.0000          0.0000          0.0000
   2.9800          5.7008          5.7008          5.7008          0.0000          0.0000          0.0000
   3.0000          5.8526          5.8526          5.8526          0.0000          0.0000          0.0000
   3.0200          5.9988          5.9988          5.9988          0.0000          0.0000          0.0000
   3.0400          6.1422          6.1422          6.1422          0.0000          0.0000          0.0000
   3.0600          6.2859          6.2859          6.2859          0.0000          0.0000          0.0000
   3.0800          6.4327          6.4327          6.4327          0.0000          0.0000          0.0000
   3.1000          6.5844          6.5844          6.5844          0.0000          0.0000          0.0000
   3.1200          6.7421          6.7421          6.7421          0.0000          0.0000          0.0000
   3.1400          6.9051          6.9051          6.9051          0.0000          0.0000          0.0000
   3.1600          7.0716          7.0716          7.0716          0.0000          0.0000          0.0000
   3.1800          7.2388          7.2388          7.2388          0.0000          0.0000          0.0000
   3.2000          7.4031          7.4031          7.4031          0.0000          0.0000          0.0000
   3.2200          7.5614          7.5614          7.5614          0.0000          0.0000          0.0000
   3.2400          7.7116          7.7116          7.7116          0.0000          0.0000          0.0000
   3.2600          7.8534          7.8534          7.8534          0.0000          0.0000          0.0000
   3.2800          7.9887          7.9887          7.9887          0.0000          0.0000          0.0000
   3.3000          8.1214          8.1214          8.1214          0.0000          0.0000          0.0000
   3.3200          8.2570          8.2570          8.2570          0.0000          0.0000          0.0000
   3.3400          8.4020          8.4020          8.4020          0.0000          0.0000          0.0000
   3.3600          8.5621          8.5621          8.5621          0.0000          0.0000          0.0000
   3.3800          8.7423          8.7423          8.7423          0.0000          0.0000          0.0000
   3.4000          8.9460          8.9460          8.9460          0.0000          0.0000          0.0000
   3.4200          9.1752          9.1752          9.1752          0.0000          0.0000          0.0000
   3.4400          9.4309          9.4309          9.4309          0.0000          0.0000          0.0000
   3.4600          9.7137          9.7137          9.7137          0.0000          0.0000          0.0000
   3.4800         10.0240         10.0240         10.0240          0.0000          0.0000          0.0000
   3.5000         10.3628         10.3628         10.3628          0.0000          0.0000          0.0000
   3.5200         10.7312         10.7312         10.7312          0.0000          0.0000          0.0000
   3.5400         11.1306         11.1306         11.1306          0.0000          0.0000          0.0000
   3.5600         11.5628         11.5628         11.5628          0.0000          0.0000          0.0000
   3.5800         12.0288         12.0288         12.0288          0.0000          0.0000          0.0000
   3.6000         12.5294         12.5294         12.5294          0.0000          0.0000          0.0000
   3.6200         13.0640         13.0640         13.0640          0.0000          0.0000          0.0000
   3.6400         13.6306         13.6306         13.6306          0.0000          0.0000          0.0000
   3.6600         14.2250         14.2250         14.2250          0.0000          0.0000          0.0000
   3.6800         14.8410         14.8410         14.8410          0.0000          0.0000          0.0000
   3.7000         15.4702         15.4702         15.4702          0.0000          0.0000          0.0000
   3.7200         16.1025         16.1025         16.1025          0.0000          0.0000          0.0000
   3.7400         16.7264         16.7264         16.7264          0.0000          0.0000          0.0000
   3.7600         17.3296         17.3296         17.3296          0.0000          0.0000          0.0000
   3.7800         17.9001         17.9001         17.9001          0.0000          0.0000          0.0000
   3.8000         18.4264         18.4264         18.4264          0.0000          0.0000          0.0000
   3.8200         18.8987         18.8987         18.8987          0.0000          0.0000          0.0000
   3.8400         19.3097         19.3097         19.3097          0.0000          0.0000          0.0000
   3.8600         19.6550         19.6550         19.6550          0.0000          0.0000          0.0000
   3.8800         19.9338         19.9338         19.9338          0.0000          0.0000          0.0000
   3.9000         20.1492         20.1492         20.1492          0.0000          0.0000          0.0000
   3.9200         20.3075         20.3075         20.3075          0.0000          0.0000          0.0000
   3.9400         20.4177         20.4177         20.4177          0.0000          0.0000          0.0000
   3.9600         20.4897         20.4897         20.4897          0.0000          0.0000          0.0000
   3.9800         20.5325         20.5325         20.5325          0.0000          0.0000          0.0000
   4.0000         20.5527         20.5527         20.5527          0.0000          0.0000          0.0000
   4.0200         20.5533         20.5533         20.5533          0.0000          0.0000          0.0000
   4.0400         20.5338         20.5338         20.5338          0.0000          0.0000          0.0000
   4.0600         20.4902         20.4902         20.4902          0.0000          0.0000          0.0000
   4.0800         20.4174         20.4174         20.4174          0.0000          0.0000          0.0000
   4.1000         20.3100         20.3100         20.3100          0.0000          0.0000          0.0000
   4.1200         20.1652         20.1652         20.1652          0.0000          0.0000          0.0000
   4.1400         19.9840         19.9840         19.9840          0.0000          0.0000          0.0000
   4.1600         19.7718         19.7718         19.7718          0.0000          0.0000          0.0000
   4.1800         19.5391         19.5391         19.5391          0.0000          0.0000          0.0000
   4.2000         19.3002         19.3002         19.3002          0.0000          0.0000          0.0000
   4.2200         19.0716         19.0716         19.0716          0.0000          0.0000          0.0000
   4.2400         18.8698         18.8698         18.8698          0.0000          0.0000          0.0000
   4.2600         18.7087         18.7087         18.7087          0.0000          0.0000          0.0000
   4.2800         18.5982         18.5982         18.5982          0.0000          0.0000          0.0000
   4.3000         18.5424         18.5424         18.5424          0.0000          0.0000          0.0000
   4.3200         18.5399         18.5399         18.5399          0.0000          0.0000          0.0000
   4.3400         18.5846         18.5846         18.5846          0.0000          0.0000          0.0000
   4.3600         18.6671         18.6671         18.6671          0.0000          0.0000          0.0000
   4.3800         18.7760         18.7760         18.7760          0.0000          0.0000          0.0000
   4.4000         18.8998         18.8998         18.8998          0.0000          0.0000          0.0000
   4.4200         19.0278         19.0278         19.0278          0.0000          0.0000          0.0000
   4.4400         19.1510         19.1510         19.1510          0.0000          0.0000          0.0000
   4.4600         19.2627         19.2627         19.2627          0.0000          0.0000          0.0000
   4.4800         19.3581         19.3581         19.3581          0.0000          0.0000          0.0000
   4.5000         19.4347         19.4347         19.4347          0.0000          0.0000          0.0000
   4.5200         19.4917         19.4917         19.4917          0.0000          0.0000          0.0000
   4.5400         19.5295         19.5295         19.5295          0.0000          0.0000          0.0000
   4.5600         19.5499         19.5499         19.5499          0.0000          0.0000          0.0000
   4.5800         19.5550         19.5550         19.5550          0.0000          0.0000          0.0000
   4.6000         19.5476         19.5476         19.5476          0.0000          0.0000          0.0000
   4.6200         19.5304         19.5304         19.5304          0.0000          0.0000          0.0000
   4.6400         19.5067         19.5067         19.5067          0.0000          0.0000          0.0000
   4.6600         19.4796         19.4796         19.4796          0.0000          0.0000          0.0000
   4.6800         19.4531         19.4531         19.4531          0.0000          0.0000          0.0000
   4.7000         19.4314         19.4314         19.4314          0.0000          0.0000          0.0000
   4.7200         19.4196         19.4196         19.4196          0.0000          0.0000          0.0000
   4.7400         19.4225         19.4225         19.4225          0.0000          0.0000          0.0000
   4.7600         19.4450         19.4450         19.4450          0.0000          0.0000          0.0000
   4.7800         19.4905         19.4905         19.4905          0.0000          0.0000          0.0000
   4.8000         19.5607         19.5607         19.5607          0.0000          0.0000          0.0000
   4.8200         19.6548         19.6548         19.6548          0.0000          0.0000          0.0000
   4.8400         19.7693         19.7693         19.7693          0.0000          0.0000          0.0000
   4.8600         19.8984         19.8984         19.8984          0.0000          0.0000          0.0000
   4.8800         20.0344         20.0344         20.0344          0.0000          0.0000          0.0000
   4.9000         20.1683         20.1683         20.1683          0.0000          0.0000          0.0000
   4.9200         20.2909         20.2909         20.2909          0.0000          0.0000          0.0000
   4.9400         20.3931         20.3931         20.3931          0.0000          0.0000          0.0000
   4.9600         20.4671         20.4671         20.4671          0.0000          0.0000          0.0000
   4.9800         20.5066         20.5066         20.5066          0.0000          0.0000          0.0000
   5.0000         20.5079         20.5079         20.5079          0.0000          0.0000          0.0000
   5.0200         20.4701         20.4701         20.4701          0.0000          0.0000          0.0000
   5.0400         20.3950         20.3950         20.3950          0.0000          0.0000          0.0000
   5.0600         20.2876         20.2876         20.2876          0.0000          0.0000          0.0000
   5.0800         20.1550         20.1550         20.1550          0.0000          0.0000          0.0000
   5.1000         20.0059         20.0059         20.0059          0.0000          0.0000          0.0000
   5.1200         19.8499         19.8499         19.8499          0.0000          0.0000          0.0000
   5.1400         19.6965         19.6965         19.6965          0.0000          0.0000          0.0000
   5.1600         19.5544         19.5544         19.5544          0.0000          0.0000          0.0000
   5.1800         19.4308         19.4308         19.4308          0.0000          0.0000          0.0000
   5.2000         19.3319         19.3319         19.3319          0.0000          0.0000          0.0000
   5.2200         19.2618         19.2618         19.2618          0.0000          0.0000          0.0000
   5.2400         19.2230         19.2230         19.2230          0.0000          0.0000          0.0000
   5.2600         19.2162         19.2162         19.2162          0.0000          0.0000          0.0000
   5.2800         19.2405         19.2405         19.2405          0.0000          0.0000          0.0000
   5.3000         19.2929         19.2929         19.2929          0.0000          0.0000          0.0000
   5.3200         19.3694         19.3694         19.3694          0.0000          0.0000          0.0000
   5.3400         19.4645         19.4645         19.4645          0.0000          0.0000          0.0000
   5.3600         19.5716         19.5716         19.5716          0.0000          0.0000          0.0000
   5.3800         19.6839         19.6839         19.6839          0.0000          0.0000          0.0000
   5.4000         19.7942         19.7942         19.7942          0.0000          0.0000          0.0000
   5.4200         19.8958         19.8958         19.8958          0.0000          0.0000          0.0000
   5.4400         19.9825         19.9825         19.9825          0.0000          0.0000          0.0000
   5.4600         20.0494         20.0494         20.0494          0.0000          0.0000          0.0000
   5.4800         20.0931         20.0931         20.0931          0.0000          0.0000          0.0000
   5.5000         20.1120         20.1120         20.1120          0.0000          0.0000          0.0000
   5.5200         20.1068         20.1068         20.1068          0.0000          0.0000          0.0000
   5.5400         20.0801         20.0801         20.0801          0.0000          0.0000          0.0000
   5.5600         20.0362         20.0362         20.0362          0.0000          0.0000          0.0000
   5.5800         19.9805         19.9805         19.9805          0.0000          0.0000          0.0000
   5.6000         19.9183         19.9183         19.9183          0.0000          0.0000          0.0000
   5.6200         19.8543         19.8543         19.8543          0.0000          0.0000          0.0000
   5.6400         19.7914         19.7914         19.7914          0.0000          0.0000          0.0000
   5.6600         19.7309         19.7309         19.7309          0.0000          0.0000          0.0000
   5.6800         19.6723         19.6723         19.6723          0.0000          0.0000          0.0000
   5.7000         19.6139         19.6139         19.6139          0.0000          0.0000          0.0000
   5.7200         19.5536         19.5536         19.5536          0.0000          0.0000          0.0000
   5.7400         19.4895         19.4895         19.4895          0.0000          0.0000          0.0000
   5.7600         19.4208         19.4208         19.4208          0.0000          0.0000          0.0000
   5.7800         19.3475         19.3475         19.3475          0.0000          0.0000          0.0000
   5.8000         19.2715         19.2715         19.2715          0.0000          0.0000          0.0000
   5.8200         19.1957         19.1957         19.1957          0.0000          0.0000          0.0000
   5.8400         19.1240         19.1240         19.1240          0.0000          0.0000          0.0000
   5.8600         19.0613         19.0613         19.0613          0.0000          0.0000          0.0000
   5.8800         19.0127         19.0127         19.0127          0.0000          0.0000          0.0000
   5.9000         18.9827         18.9827         18.9827          0.0000          0.0000          0.0000
   5.9200         18.9748         18.9748         18.9748          0.0000          0.0000          0.0000
   5.9400         18.9905         18.9905         18.9905          0.0000          0.0000          0.0000
   5.9600         19.0288         19.0288         19.0288          0.0000          0.0000          0.0000
   5.9800         19.0864         19.0864         19.0864          0.0000          0.0000          0.0000
   6.0000         19.1580         19.1580         19.1580          0.0000          0.0000          0.0000
   6.0200         19.2370         19.2370         19.2370          0.0000          0.0000          0.0000
   6.0400         19.3164         19.3164         19.3164          0.0000          0.0000          0.0000
   6.0600         19.3901         19.3901         19.3901          0.0000          0.0000          0.0000
   6.0800         19.4528         19.4528         19.4528          0.0000          0.0000          0.0000
   6.1000         19.5009         19.5009         19.5009          0.0000          0.0000          0.0000
   6.1200         19.5326         19.5326         19.5326          0.0000          0.0000          0.0000
   6.1400         19.5471         19.5471         19.5471          0.0000          0.0000          0.0000
   6.1600         19.5449         19.5449         19.5449          0.0000          0.0000          0.0000
   6.1800         19.5270         19.5270         19.5270          0.0000          0.0000          0.0000
   6.2000         19.4944         19.4944         19.4944          0.0000          0.0000          0.0000
   6.2200         19.4484         19.4484         19.4484          0.0000          0.0000          0.0000
   6.2400         19.3901         19.3901         19.3901          0.0000          0.0000          0.0000
   6.2600         19.3206         19.3206         19.3206          0.0000          0.0000          0.0000
   6.2800         19.2409         19.2409         19.2409          0.0000          0.0000          0.0000
   6.3000         19.1525         19.1525         19.1525          0.0000          0.0000          0.0000
   6.3200         19.0571         19.0571         19.0571          0.0000          0.0000          0.0000
   6.3400         18.9569         18.9569         18.9569          0.0000          0.0000          0.0000
   6.3600         18.8545         18.8545         18.8545          0.0000          0.0000          0.0000
   6.3800         18.7526         18.7526         18.7526          0.0000          0.0000          0.0000
   6.4000         18.6540         18.6540         18.6540          0.0000          0.0000          0.0000
   6.4200         18.5616         18.5616         18.5616          0.0000          0.0000          0.0000
   6.4400         18.4781         18.4781         18.4781          0.0000          0.0000          0.0000
   6.4600         18.4061         18.4061         18.4061          0.0000          0.0000          0.0000
   6.4800         18.3476         18.3476         18.3476          0.0000          0.0000          0.0000
   6.5000         18.3044         18.3044         18.3044          0.0000          0.0000          0.0000
   6.5200         18.2772         18.2772         18.2772          0.0000          0.0000          0.0000
   6.5400         18.2660         18.2660         18.2660          0.0000          0.0000          0.0000
   6.5600         18.2697         18.2697         18.2697          0.0000          0.0000          0.0000
   6.5800         18.2862         18.2862         18.2862          0.0000          0.0000          0.0000
   6.6000         18.3130         18.3130         18.3130          0.0000          0.0000          0.0000
   6.6200         18.3467         18.3467         18.3467          0.0000          0.0000          0.0000
   6.6400         18.3843         18.3843         18.3843          0.0000          0.0000          0.0000
   6.6600         18.4228         18.4228         18.4228          0.0000          0.0000          0.0000
   6.6800         18.4592         18.4592         18.4592          0.0000          0.0000          0.0000
   6.7000         18.4913         18.4913         18.4913          0.0000          0.0000          0.0000
   6.7200         18.5168         18.5168         18.5168          0.0000          0.0000          0.0000
   6.7400         18.5341         18.5341         18.5341          0.0000          0.0000          0.0000
   6.7600         18.5419         18.5419         18.5419          0.0000          0.0000          0.0000
   6.7800         18.5398         18.5398         18.5398          0.0000          0.0000          0.0000
   6.8000         18.5276         18.5276         18.5276          0.0000          0.0000          0.0000
   6.8200         18.5060         18.5060         18.5060          0.0000          0.0000          0.0000
   6.8400         18.4761         18.4761         18.4761          0.0000          0.0000          0.0000
   6.8600         18.4394         18.4394         18.4394          0.0000          0.0000          0.0000
   6.8800         18.3976         18.3976         18.3976          0.0000          0.0000          0.0000
   6.9000         18.3526         18.3526         18.3526          0.0000          0.0000          0.0000
   6.9200         18.3063         18.3063         18.3063          0.0000          0.0000          0.0000
   6.9400         18.2604         18.2604         18.2604          0.0000          0.0000          0.0000
   6.9600         18.2164         18.2164         18.2164          0.0000          0.0000          0.0000
   6.9800         18.1754         18.1754         18.1754          0.0000          0.0000          0.0000
   7.0000         18.1379         18.1379         18.1379          0.0000          0.0000          0.0000
   7.0200         18.1040         18.1040         18.1040          0.0000          0.0000          0.0000
   7.0400         18.0734         18.0734         18.0734          0.0000          0.0000          0.0000
   7.0600         18.0458         18.0458         18.0458          0.0000          0.0000          0.0000
   7.0800         18.0211         18.0211         18.0211          0.0000          0.0000          0.0000
   7.1000         17.9999         17.9999         17.9999          0.0000          0.0000          0.0000
   7.1200         17.9834         17.9834         17.9834          0.0000          0.0000          0.0000
   7.1400         17.9736         17.9736         17.9736          0.0000          0.0000          0.0000
   7.1600         17.9728         17.9728         17.9728          0.0000          0.0000          0.0000
   7.1800         17.9831         17.9831         17.9831          0.0000          0.0000          0.0000
   7.2000         18.0056         18.0056         18.0056          0.0000          0.0000          0.0000
   7.2200         18.0405         18.0405         18.0405          0.0000          0.0000          0.0000
   7.2400         18.0870         18.0870         18.0870          0.0000          0.0000          0.0000
   7.2600         18.1427         18.1427         18.1427          0.0000          0.0000          0.0000
   7.2800         18.2047         18.2047         18.2047          0.0000          0.0000          0.0000
   7.3000         18.2693         18.2693         18.2693          0.0000          0.0000          0.0000
   7.3200         18.3328         18.3328         18.3328          0.0000          0.0000          0.0000
   7.3400         18.3915         18.3915         18.3915          0.0000          0.0000          0.0000
   7.3600         18.4422         18.4422         18.4422          0.0000          0.0000          0.0000
   7.3800         18.4824         18.4824         18.4824          0.0000          0.0000          0.0000
   7.4000         18.5104         18.5104         18.5104          0.0000          0.0000          0.0000
   7.4200         18.5254         18.5254         18.5254          0.0000          0.0000          0.0000
   7.4400         18.5275         18.5275         18.5275          0.0000          0.0000          0.0000
   7.4600         18.5175         18.5175         18.5175          0.0000          0.0000          0.0000
   7.4800         18.4968         18.4968         18.4968          0.0000          0.0000          0.0000
   7.5000         18.4667         18.4667         18.4667          0.0000          0.0000          0.0000
   7.5200         18.4291         18.4291         18.4291          0.0000          0.0000          0.0000
   7.5400         18.3857         18.3857         18.3857          0.0000          0.0000          0.0000
   7.5600         18.3381         18.3381         18.3381          0.0000          0.0000          0.0000
   7.5800         18.2878         18.2878         18.2878          0.0000          0.0000          0.0000
   7.6000         18.2363         18.2363         18.2363          0.0000          0.0000          0.0000
   7.6200         18.1847         18.1847         18.1847          0.0000          0.0000          0.0000
   7.6400         18.1340         18.1340         18.1340          0.0000          0.0000          0.0000
   7.6600         18.0852         18.0852         18.0852          0.0000          0.0000          0.0000
   7.6800         18.0390         18.0390         18.0390          0.0000          0.0000          0.0000
   7.7000         17.9964         17.9964         17.9964          0.0000          0.0000          0.0000
   7.7200         17.9585         17.9585         17.9585          0.0000          0.0000          0.0000
   7.7400         17.9266         17.9266         17.9266          0.0000          0.0000          0.0000
   7.7600         17.9017         17.9017         17.9017          0.0000          0.0000          0.0000
   7.7800         17.8847         17.8847         17.8847          0.0000          0.0000          0.0000
   7.8000         17.8763         17.8763         17.8763          0.0000          0.0000          0.0000
   7.8200         17.8763         17.8763         17.8763          0.0000          0.0000          0.0000
   7.8400         17.8842         17.8842         17.8842          0.0000          0.0000          0.0000
   7.8600         17.8990         17.8990         17.8990          0.0000          0.0000          0.0000
   7.8800         17.9190         17.9190         17.9190          0.0000          0.0000          0.0000
   7.9000         17.9429         17.9429         17.9429          0.0000          0.0000          0.0000
   7.9200         17.9692         17.9692         17.9692          0.0000          0.0000          0.0000
   7.9400         17.9967         17.9967         17.9967          0.0000          0.0000          0.0000
   7.9600         18.0244         18.0244         18.0244          0.0000          0.0000          0.0000
   7.9800         18.0517         18.0517         18.0517          0.0000          0.0000          0.0000
   8.0000         18.0780         18.0780         18.0780          0.0000          0.0000          0.0000
   8.0200         18.1025         18.1025         18.1025          0.0000          0.0000          0.0000
   8.0400         18.1244         18.1244         18.1244          0.0000          0.0000          0.0000
   8.0600         18.1426         18.1426         18.1426          0.0000          0.0000          0.0000
   8.0800         18.1557         18.1557         18.1557          0.0000          0.0000          0.0000
   8.1000         18.1621         18.1621         18.1621          0.0000          0.0000          0.0000
   8.1200         18.1605         18.1605         18.1605          0.0000          0.0000          0.0000
   8.1400         18.1501         18.1501         18.1501          0.0000          0.0000          0.0000
   8.1600         18.1304         18.1304         18.1304          0.0000          0.0000          0.0000
   8.1800         18.1023         18.1023         18.1023          0.0000          0.0000          0.0000
   8.2000         18.0671         18.0671         18.0671          0.0000          0.0000          0.0000
   8.2200         18.0271         18.0271         18.0271          0.0000          0.0000          0.0000
   8.2400         17.9853         17.9853         17.9853          0.0000          0.0000          0.0000
   8.2600         17.9447         17.9447         17.9447          0.0000          0.0000          0.0000
   8.2800         17.9078         17.9078         17.9078          0.0000          0.0000          0.0000
   8.3000         17.8768         17.8768         17.8768          0.0000          0.0000          0.0000
   8.3200         17.8526         17.8526         17.8526          0.0000          0.0000          0.0000
   8.3400         17.8352         17.8352         17.8352          0.0000          0.0000          0.0000
   8.3600         17.8237         17.8237         17.8237          0.0000          0.0000          0.0000
   8.3800         17.8161         17.8161         17.8161          0.0000          0.0000          0.0000
   8.4000         17.8107         17.8107         17.8107          0.0000          0.0000          0.0000
   8.4200         17.8056         17.8056         17.8056          0.0000          0.0000          0.0000
   8.4400         17.7990         17.7990         17.7990          0.0000          0.0000          0.0000
   8.4600         17.7901         17.7901         17.7901          0.0000          0.0000          0.0000
   8.4800         17.7784         17.7784         17.7784          0.0000          0.0000          0.0000
   8.5000         17.7641         17.7641         17.7641          0.0000          0.0000          0.0000
   8.5200         17.7476         17.7476         17.7476          0.0000          0.0000          0.0000
   8.5400         17.7297         17.7297         17.7297          0.0000          0.0000          0.0000
   8.5600         17.7119         17.7119         17.7119          0.0000          0.0000          0.0000
   8.5800         17.6953         17.6953         17.6953          0.0000          0.0000          0.0000
   8.6000         17.6818         17.6818         17.6818          0.0000          0.0000          0.0000
   8.6200         17.6726         17.6726         17.6726          0.0000          0.0000          0.0000
   8.6400         17.6687         17.6687         17.6687          0.0000          0.0000          0.0000
   8.6600         17.6705         17.6705         17.6705          0.0000          0.0000          0.0000
   8.6800         17.6770         17.6770         17.6770          0.0000          0.0000          0.0000
   8.7000         17.6868         17.6868         17.6868          0.0000          0.0000          0.0000
   8.7200         17.6973         17.6973         17.6973          0.0000          0.0000          0.0000
   8.7400         17.7059         17.7059         17.7059          0.0000          0.0000          0.0000
   8.7600         17.7100         17.7100         17.7100          0.0000          0.0000          0.0000
   8.7800         17.7081         17.7081         17.7081          0.0000          0.0000          0.0000
   8.8000         17.6993         17.6993         17.6993          0.0000          0.0000          0.0000
   8.8200         17.6841         17.6841         17.6841          0.0000          0.0000          0.0000
   8.8400         17.6640         17.6640         17.6640          0.0000          0.0000          0.0000
   8.8600         17.6411         17.6411         17.6411          0.0000          0.0000          0.0000
   8.8800         17.6178         17.6178         17.6178          0.0000          0.0000          0.0000
   8.9000         17.5962         17.5962         17.5962          0.0000          0.0000          0.0000
   8.9200         17.5775         17.5775         17.5775          0.0000          0.0000          0.0000
   8.9400         17.5623         17.5623         17.5623          0.0000          0.0000          0.0000
   8.9600         17.5499         17.5499         17.5499          0.0000          0.0000          0.0000
   8.9800         17.5390         17.5390         17.5390          0.0000          0.0000          0.0000
   9.0000         17.5277         17.5277         17.5277          0.0000          0.0000          0.0000
   9.0200         17.5141         17.5141         17.5141          0.0000          0.0000          0.0000
   9.0400         17.4964         17.4964         17.4964          0.0000          0.0000          0.0000
   9.0600         17.4731         17.4731         17.4731          0.0000          0.0000          0.0000
   9.0800         17.4438         17.4438         17.4438          0.0000          0.0000          0.0000
   9.1000         17.4082         17.4082         17.4082          0.0000          0.0000          0.0000
   9.1200         17.3671         17.3671         17.3671          0.0000          0.0000          0.0000
   9.1400         17.3213         17.3213         17.3213          0.0000          0.0000          0.0000
   9.1600         17.2725         17.2725         17.2725          0.0000          0.0000          0.0000
   9.1800         17.2221         17.2221         17.2221          0.0000          0.0000          0.0000
   9.2000         17.1722         17.1722         17.1722          0.0000          0.0000          0.0000
   9.2200         17.1243         17.1243         17.1243          0.0000          0.0000          0.0000
   9.2400         17.0806         17.0806         17.0806          0.0000          0.0000          0.0000
   9.2600         17.0425         17.0425         17.0425          0.0000          0.0000          0.0000
   9.2800         17.0118         17.0118         17.0118          0.0000          0.0000          0.0000
   9.3000         16.9898         16.9898         16.9898          0.0000          0.0000          0.0000
   9.3200         16.9770         16.9770         16.9770          0.0000          0.0000          0.0000
   9.3400         16.9735         16.9735         16.9735          0.0000          0.0000          0.0000
   9.3600         16.9784         16.9784         16.9784          0.0000          0.0000          0.0000
   9.3800         16.9903         16.9903         16.9903          0.0000          0.0000          0.0000
   9.4000         17.0070         17.0070         17.0070          0.0000          0.0000          0.0000
   9.4200         17.0260         17.0260         17.0260          0.0000          0.0000          0.0000
   9.4400         17.0449         17.0449         17.0449          0.0000          0.0000          0.0000
   9.4600         17.0614         17.0614         17.0614          0.0000          0.0000          0.0000
   9.4800         17.0737         17.0737         17.0737          0.0000          0.0000          0.0000
   9.5000         17.0805         17.0805         17.0805          0.0000          0.0000          0.0000
   9.5200         17.0814         17.0814         17.0814          0.0000          0.0000          0.0000
   9.5400         17.0765         17.0765         17.0765          0.0000          0.0000          0.0000
   9.5600         17.0665         17.0665         17.0665          0.0000          0.0000          0.0000
   9.5800         17.0523         17.0523         17.0523          0.0000          0.0000          0.0000
   9.6000         17.0351         17.0351         17.0351          0.0000          0.0000          0.0000
   9.6200         17.0154         17.0154         17.0154          0.0000          0.0000          0.0000
   9.6400         16.9937         16.9937         16.9937          0.0000          0.0000          0.0000
   9.6600         16.9699         16.9699         16.9699          0.0000          0.0000          0.0000
   9.6800         16.9435         16.9435         16.9435          0.0000          0.0000          0.0000
   9.7000         16.9138         16.9138         16.9138          0.0000          0.0000          0.0000
   9.7200         16.8802         16.8802         16.8802          0.0000          0.0000          0.0000
   9.7400         16.8423         16.8423         16.8423          0.0000          0.0000          0.0000
   9.7600         16.8001         16.8001         16.8001          0.0000          0.0000          0.0000
   9.7800         16.7540         16.7540         16.7540          0.0000          0.0000          0.0000
   9.8000         16.7051         16.7051         16.7051          0.0000          0.0000          0.0000
   9.8200         16.6548         16.6548         16.6548          0.0000          0.0000          0.0000
   9.8400         16.6046         16.6046         16.6046          0.0000          0.0000          0.0000
   9.8600         16.5566         16.5566         16.5566          0.0000          0.0000          0.0000
   9.8800         16.5128         16.5128         16.5128          0.0000          0.0000          0.0000
   9.9000         16.4751         16.4751         16.4751          0.0000          0.0000          0.0000
   9.9200         16.4450         16.4450         16.4450          0.0000          0.0000          0.0000
   9.9400         16.4239         16.4239         16.4239          0.0000          0.0000          0.0000
   9.9600         16.4123         16.4123         16.4123          0.0000          0.0000          0.0000
   9.9800         16.4101         16.4101         16.4101          0.0000          0.0000          0.0000
  10.0000         16.4161         16.4161         16.4161          0.0000          0.0000          0.0000
  10.0200         16.4287         16.4287         16.4287          0.0000          0.0000          0.0000
  10.0400         16.4454         16.4454         16.4454          0.0000          0.0000          0.0000
  10.0600         16.4635         16.4635         16.4635          0.0000          0.0000          0.0000
  10.0800         16.4804         16.4804         16.4804          0.0000          0.0000          0.0000
  10.1000         16.4938         16.4938         16.4938          0.0000          0.0000          0.0000
  10.1200         16.5024         16.5024         16.5024          0.0000          0.0000          0.0000
  10.1400         16.5052         16.5052         16.5052          0.0000          0.0000          0.0000
  10.1600         16.5024         16.5024         16.5024          0.0000          0.0000          0.0000
  10.1800         16.4948         16.4948         16.4948          0.0000          0.0000          0.0000
  10.2000         16.4834         16.4834         16.4834          0.0000          0.0000          0.0000
  10.2200         16.4698         16.4698         16.4698          0.0000          0.0000          0.0000
  10.2400         16.4553         16.4553         16.4553          0.0000          0.0000          0.0000
  10.2600         16.4409         16.4409         16.4409          0.0000          0.0000          0.0000
  10.2800         16.4268         16.4268         16.4268          0.0000          0.0000          0.0000
  10.3000         16.4128         16.4128         16.4128          0.0000          0.0000          0.0000
  10.3200         16.3979         16.3979         16.3979          0.0000          0.0000          0.0000
  10.3400         16.3808         16.3808         16.3808          0.0000          0.0000          0.0000
  10.3600         16.3600         16.3600         16.3600          0.0000          0.0000          0.0000
  10.3800         16.3343         16.3343         16.3343          0.0000          0.0000          0.0000
  10.4000         16.3030         16.3030         16.3030          0.0000          0.0000          0.0000
  10.4200         16.2663         16.2663         16.2663          0.0000          0.0000          0.0000
  10.4400         16.2249         16.2249         16.2249          0.0000          0.0000          0.0000
  10.4600         16.1804         16.1804         16.1804          0.0000          0.0000          0.0000
  10.4800         16.1345         16.1345         16.1345          0.0000          0.0000          0.0000
  10.5000         16.0893         16.0893         16.0893          0.0000          0.0000          0.0000
  10.5200         16.0466         16.0466         16.0466          0.0000          0.0000          0.0000
  10.5400         16.0079         16.0079         16.0079          0.0000          0.0000          0.0000
  10.5600         15.9746         15.9746         15.9746          0.0000          0.0000          0.0000
  10.5800         15.9472         15.9472         15.9472          0.0000          0.0000          0.0000
  10.6000         15.9262         15.9262         15.9262          0.0000          0.0000          0.0000
  10.6200         15.9113         15.9113         15.9113          0.0000          0.0000          0.0000
  10.6400         15.9022         15.9022         15.9022          0.0000          0.0000          0.0000
  10.6600         15.8979         15.8979         15.8979          0.0000          0.0000          0.0000
  10.6800         15.8973         15.8973         15.8973          0.0000          0.0000          0.0000
  10.7000         15.8992         15.8992         15.8992          0.0000          0.0000          0.0000
  10.7200         15.9023         15.9023         15.9023          0.0000          0.0000          0.0000
  10.7400         15.9051         15.9051         15.9051          0.0000          0.0000          0.0000
  10.7600         15.9065         15.9065         15.9065          0.0000          0.0000          0.0000
  10.7800         15.9056         15.9056         15.9056          0.0000          0.0000          0.0000
  10.8000         15.9017         15.9017         15.9017          0.0000          0.0000          0.0000
  10.8200         15.8947         15.8947         15.8947          0.0000          0.0000          0.0000
  10.8400         15.8848         15.8848         15.8848          0.0000          0.0000          0.0000
  10.8600         15.8723         15.8723         15.8723          0.0000          0.0000          0.0000
  10.8800         15.8577         15.8577         15.8577          0.0000          0.0000          0.0000
  10.9000         15.8418         15.8418         15.8418          0.0000          0.0000          0.0000
  10.9200         15.8249         15.8249         15.8249          0.0000          0.0000          0.0000
  10.9400         15.8073         15.8073         15.8073          0.0000          0.0000          0.0000
  10.9600         15.7890         15.7890         15.7890          0.0000          0.0000          0.0000
  10.9800         15.7701         15.7701         15.7701          0.0000          0.0000          0.0000
  11.0000         15.7504         15.7504         15.7504          0.0000          0.0000          0.0000
  11.0200         15.7299         15.7299         15.7299          0.0000          0.0000          0.0000
  11.0400         15.7084         15.7084         15.7084          0.0000          0.0000          0.0000
  11.0600         15.6859         15.6859         15.6859          0.0000          0.0000          0.0000
  11.0800         15.6622         15.6622         15.6622          0.0000          0.0000          0.0000
  11.1000         15.6370         15.6370         15.6370          0.0000          0.0000          0.0000
  11.1200         15.6100         15.6100         15.6100          0.0000          0.0000          0.0000
  11.1400         15.5809         15.5809         15.5809          0.0000          0.0000          0.0000
  11.1600         15.5498         15.5498         15.5498          0.0000          0.0000          0.0000
  11.1800         15.5170         15.5170         15.5170          0.0000          0.0000          0.0000
  11.2000         15.4832         15.4832         15.4832          0.0000          0.0000          0.0000
  11.2200         15.4493         15.4493         15.4493          0.0000          0.0000          0.0000
  11.2400         15.4164         15.4164         15.4164          0.0000          0.0000          0.0000
  11.2600         15.3855         15.3855         15.3855          0.0000          0.0000          0.0000
  11.2800         15.3573         15.3573         15.3573          0.0000          0.0000          0.0000
  11.3000         15.3321         15.3321         15.3321          0.0000          0.0000          0.0000
  11.3200         15.3098         15.3098         15.3098          0.0000          0.0000          0.0000
  11.3400         15.2899         15.2899         15.2899          0.0000          0.0000          0.0000
  11.3600         15.2719         15.2719         15.2719          0.0000          0.0000          0.0000
  11.3800         15.2551         15.2551         15.2551          0.0000          0.0000          0.0000
  11.4000         15.2391         15.2391         15.2391          0.0000          0.0000          0.0000
  11.4200         15.2238         15.2238         15.2238          0.0000          0.0000          0.0000
  11.4400         15.2092         15.2092         15.2092          0.0000          0.0000          0.0000
  11.4600         15.1953         15.1953         15.1953          0.0000          0.0000          0.0000
  11.4800         15.1823         15.1823         15.1823          0.0000          0.0000          0.0000
  11.5000         15.1706         15.1706         15.1706          0.0000          0.0000          0.0000
  11.5200         15.1603         15.1603         15.1603          0.0000          0.0000          0.0000
  11.5400         15.1513         15.1513         15.1513          0.0000          0.0000          0.0000
  11.5600         15.1437         15.1437         15.1437          0.0000          0.0000          0.0000
  11.5800         15.1375         15.1375         15.1375          0.0000          0.0000          0.0000
  11.6000         15.1322         15.1322         15.1322          0.0000          0.0000          0.0000
  11.6200         15.1277         15.1277         15.1277          0.0000          0.0000          0.0000
  11.6400         15.1238         15.1238         15.1238          0.0000          0.0000          0.0000
  11.6600         15.1204         15.1204         15.1204          0.0000          0.0000          0.0000
  11.6800         15.1173         15.1173         15.1173          0.0000          0.0000          0.0000
  11.7000         15.1146         15.1146         15.1146          0.0000          0.0000          0.0000
  11.7200         15.1123         15.1123         15.1123          0.0000          0.0000          0.0000
  11.7400         15.1105         15.1105         15.1105          0.0000          0.0000          0.0000
  11.7600         15.1090         15.1090         15.1090          0.0000          0.0000          0.0000
  11.7800         15.1072         15.1072         15.1072          0.0000          0.0000          0.0000
  11.8000         15.1044         15.1044         15.1044          0.0000          0.0000          0.0000
  11.8200         15.0992         15.0992         15.0992          0.0000          0.0000          0.0000
  11.8400         15.0904         15.0904         15.0904          0.0000          0.0000          0.0000
  11.8600         15.0768         15.0768         15.0768          0.0000          0.0000          0.0000
  11.8800         15.0574         15.0574         15.0574          0.0000          0.0000          0.0000
  11.9000         15.0319         15.0319         15.0319          0.0000          0.0000          0.0000
  11.9200         15.0005         15.0005         15.0005          0.0000          0.0000          0.0000
  11.9400         14.9639         14.9639         14.9639          0.0000          0.0000          0.0000
  11.9600         14.9234         14.9234         14.9234          0.0000          0.0000          0.0000
  11.9800         14.8807         14.8807         14.8807          0.0000          0.0000          0.0000
  12.0000         14.8374         14.8374         14.8374          0.0000          0.0000          0.0000
  12.0200         14.7952         14.7952         14.7952          0.0000          0.0000          0.0000
  12.0400         14.7554         14.7554         14.7554          0.0000          0.0000          0.0000
  12.0600         14.7191         14.7191         14.7191          0.0000          0.0000          0.0000
  12.0800         14.6869         14.6869         14.6869          0.0000          0.0000          0.0000
  12.1000         14.6589         14.6589         14.6589          0.0000          0.0000          0.0000
  12.1200         14.6350         14.6350         14.6350          0.0000          0.0000          0.0000
  12.1400         14.6148         14.6148         14.6148          0.0000          0.0000          0.0000
  12.1600         14.5977         14.5977         14.5977          0.0000          0.0000          0.0000
  12.1800         14.5829         14.5829         14.5829          0.0000          0.0000          0.0000
  12.2000         14.5698         14.5698         14.5698          0.0000          0.0000          0.0000
  12.2200         14.5574         14.5574         14.5574          0.0000          0.0000          0.0000
  12.2400         14.5451         14.5451         14.5451          0.0000          0.0000          0.0000
  12.2600         14.5320         14.5320         14.5320          0.0000          0.0000          0.0000
  12.2800         14.5177         14.5177         14.5177          0.0000          0.0000          0.0000
  12.3000         14.5019         14.5019         14.5019          0.0000          0.0000          0.0000
  12.3200         14.4848         14.4848         14.4848          0.0000          0.0000          0.0000
  12.3400         14.4668         14.4668         14.4668          0.0000          0.0000          0.0000
  12.3600         14.4488         14.4488         14.4488          0.0000          0.0000          0.0000
  12.3800         14.4314         14.4314         14.4314          0.0000          0.0000          0.0000
  12.4000         14.4154         14.4154         14.4154          0.0000          0.0000          0.0000
  12.4200         14.4012         14.4012         14.4012          0.0000          0.0000          0.0000
  12.4400         14.3886         14.3886         14.3886          0.0000          0.0000          0.0000
  12.4600         14.3773         14.3773         14.3773          0.0000          0.0000          0.0000
  12.4800         14.3664         14.3664         14.3664          0.0000          0.0000          0.0000
  12.5000         14.3546         14.3546         14.3546          0.0000          0.0000          0.0000
  12.5200         14.3410         14.3410         14.3410          0.0000          0.0000          0.0000
  12.5400         14.3242         14.3242         14.3242          0.0000          0.0000          0.0000
  12.5600         14.3036         14.3036         14.3036          0.0000          0.0000          0.0000
  12.5800         14.2787         14.2787         14.2787          0.0000          0.0000          0.0000
  12.6000         14.2495         14.2495         14.2495          0.0000          0.0000          0.0000
  12.6200         14.2163         14.2163         14.2163          0.0000          0.0000          0.0000
  12.6400         14.1800         14.1800         14.1800          0.0000          0.0000          0.0000
  12.6600         14.1415         14.1415         14.1415          0.0000          0.0000          0.0000
  12.6800         14.1019         14.1019         14.1019          0.0000          0.0000          0.0000
  12.7000         14.0623         14.0623         14.0623          0.0000          0.0000          0.0000
  12.7200         14.0237         14.0237         14.0237          0.0000          0.0000          0.0000
  12.7400         13.9870         13.9870         13.9870          0.0000          0.0000          0.0000
  12.7600         13.9530         13.9530         13.9530          0.0000          0.0000          0.0000
  12.7800         13.9224         13.9224         13.9224          0.0000          0.0000          0.0000
  12.8000         13.8954         13.8954         13.8954          0.0000          0.0000          0.0000
  12.8200         13.8724         13.8724         13.8724          0.0000          0.0000          0.0000
  12.8400         13.8531         13.8531         13.8531          0.0000          0.0000          0.0000
  12.8600         13.8372         13.8372         13.8372          0.0000          0.0000          0.0000
  12.8800         13.8238         13.8238         13.8238          0.0000          0.0000          0.0000
  12.9000         13.8119         13.8119         13.8119          0.0000          0.0000          0.0000
  12.9200         13.8004         13.8004         13.8004          0.0000          0.0000          0.0000
  12.9400         13.7884         13.7884         13.7884          0.0000          0.0000          0.0000
  12.9600         13.7749         13.7749         13.7749          0.0000          0.0000          0.0000
  12.9800         13.7595         13.7595         13.7595          0.0000          0.0000          0.0000
  13.0000         13.7422         13.7422         13.7422          0.0000          0.0000          0.0000
  13.0200         13.7232         13.7232         13.7232          0.0000          0.0000          0.0000
  13.0400         13.7029         13.7029         13.7029          0.0000          0.0000          0.0000
  13.0600         13.6818         13.6818         13.6818          0.0000          0.0000          0.0000
  13.0800         13.6603         13.6603         13.6603          0.0000          0.0000          0.0000
  13.1000         13.6388         13.6388         13.6388          0.0000          0.0000          0.0000
  13.1200         13.6175         13.6175         13.6175          0.0000          0.0000          0.0000
  13.1400         13.5965         13.5965         13.5965          0.0000          0.0000          0.0000
  13.1600         13.5760         13.5760         13.5760          0.0000          0.0000          0.0000
  13.1800         13.5561         13.5561         13.5561          0.0000          0.0000          0.0000
  13.2000         13.5372         13.5372         13.5372          0.0000          0.0000          0.0000
  13.2200         13.5196         13.5196         13.5196          0.0000          0.0000          0.0000
  13.2400         13.5036         13.5036         13.5036          0.0000          0.0000          0.0000
  13.2600         13.4895         13.4895         13.4895          0.0000          0.0000          0.0000
  13.2800         13.4774         13.4774         13.4774          0.0000          0.0000          0.0000
  13.3000         13.4671         13.4671         13.4671          0.0000          0.0000          0.0000
  13.3200         13.4584         13.4584         13.4584          0.0000          0.0000          0.0000
  13.3400         13.4507         13.4507         13.4507          0.0000          0.0000          0.0000
  13.3600         13.4434         13.4434         13.4434          0.0000          0.0000          0.0000
  13.3800         13.4357         13.4357         13.4357          0.0000          0.0000          0.0000
  13.4000         13.4269         13.4269         13.4269          0.0000          0.0000          0.0000
  13.4200         13.4161         13.4161         13.4161          0.0000          0.0000          0.0000
  13.4400         13.4024         13.4024         13.4024          0.0000          0.0000          0.0000
  13.4600         13.3853         13.3853         13.3853          0.0000          0.0000          0.0000
  13.4800         13.3643         13.3643         13.3643          0.0000          0.0000          0.0000
  13.5000         13.3393         13.3393         13.3393          0.0000          0.0000          0.0000
  13.5200         13.3105         13.3105         13.3105          0.0000          0.0000          0.0000
  13.5400         13.2783         13.2783         13.2783          0.0000          0.0000          0.0000
  13.5600         13.2434         13.2434         13.2434          0.0000          0.0000          0.0000
  13.5800         13.2063         13.2063         13.2063          0.0000          0.0000          0.0000
  13.6000         13.1677         13.1677         13.1677          0.0000          0.0000          0.0000
  13.6200         13.1283         13.1283         13.1283          0.0000          0.0000          0.0000
  13.6400         13.0885         13.0885         13.0885          0.0000          0.0000          0.0000
  13.6600         13.0489         13.0489         13.0489          0.0000          0.0000          0.0000
  13.6800         13.0101         13.0101         13.0101          0.0000          0.0000          0.0000
  13.7000         12.9727         12.9727         12.9727          0.0000          0.0000          0.0000
  13.7200         12.9372         12.9372         12.9372          0.0000          0.0000          0.0000
  13.7400         12.9042         12.9042         12.9042          0.0000          0.0000          0.0000
  13.7600         12.8743         12.8743         12.8743          0.0000          0.0000          0.0000
  13.7800         12.8480         12.8480         12.8480          0.0000          0.0000          0.0000
  13.8000         12.8256         12.8256         12.8256          0.0000          0.0000          0.0000
  13.8200         12.8072         12.8072         12.8072          0.0000          0.0000          0.0000
  13.8400         12.7927         12.7927         12.7927          0.0000          0.0000          0.0000
  13.8600         12.7817         12.7817         12.7817          0.0000          0.0000          0.0000
  13.8800         12.7735         12.7735         12.7735          0.0000          0.0000          0.0000
  13.9000         12.7674         12.7674         12.7674          0.0000          0.0000          0.0000
  13.9200         12.7623         12.7623         12.7623          0.0000          0.0000          0.0000
  13.9400         12.7573         12.7573         12.7573          0.0000          0.0000          0.0000
  13.9600         12.7513         12.7513         12.7513          0.0000          0.0000          0.0000
  13.9800         12.7434         12.7434         12.7434          0.0000          0.0000          0.0000
  14.0000         12.7332         12.7332         12.7332          0.0000          0.0000          0.0000
  14.0200         12.7203         12.7203         12.7203          0.0000          0.0000          0.0000
  14.0400         12.7047         12.7047         12.7047          0.0000          0.0000          0.0000
  14.0600         12.6869         12.6869         12.6869          0.0000          0.0000          0.0000
  14.0800         12.6672         12.6672         12.6672          0.0000          0.0000          0.0000
  14.1000         12.6461         12.6461         12.6461          0.0000          0.0000          0.0000
  14.1200         12.6240         12.6240         12.6240          0.0000          0.0000          0.0000
  14.1400         12.6013         12.6013         12.6013          0.0000          0.0000          0.0000
  14.1600         12.5779         12.5779         12.5779          0.0000          0.0000          0.0000
  14.1800         12.5538         12.5538         12.5538          0.0000          0.0000          0.0000
  14.2000         12.5288         12.5288         12.5288          0.0000          0.0000          0.0000
  14.2200         12.5028         12.5028         12.5028          0.0000          0.0000          0.0000
  14.2400         12.4756         12.4756         12.4756          0.0000          0.0000          0.0000
  14.2600         12.4473         12.4473         12.4473          0.0000          0.0000          0.0000
  14.2800         12.4178         12.4178         12.4178          0.0000          0.0000          0.0000
  14.3000         12.3873         12.3873         12.3873          0.0000          0.0000          0.0000
  14.3200         12.3560         12.3560         12.3560          0.0000          0.0000          0.0000
  14.3400         12.3242         12.3242         12.3242          0.0000          0.0000          0.0000
  14.3600         12.2921         12.2921         12.2921          0.0000          0.0000          0.0000
  14.3800         12.2600         12.2600         12.2600          0.0000          0.0000          0.0000
  14.4000         12.2283         12.2283         12.2283          0.0000          0.0000          0.0000
  14.4200         12.1974         12.1974         12.1974          0.0000          0.0000          0.0000
  14.4400         12.1680         12.1680         12.1680          0.0000          0.0000          0.0000
  14.4600         12.1406         12.1406         12.1406          0.0000          0.0000          0.0000
  14.4800         12.1159         12.1159         12.1159          0.0000          0.0000          0.0000
  14.5000         12.0944         12.0944         12.0944          0.0000          0.0000          0.0000
  14.5200         12.0763         12.0763         12.0763          0.0000          0.0000          0.0000
  14.5400         12.0616         12.0616         12.0616          0.0000          0.0000          0.0000
  14.5600         12.0500         12.0500         12.0500          0.0000          0.0000          0.0000
  14.5800         12.0409         12.0409         12.0409          0.0000          0.0000          0.0000
  14.6000         12.0335         12.0335         12.0335          0.0000          0.0000          0.0000
  14.6200         12.0270         12.0270         12.0270          0.0000          0.0000          0.0000
  14.6400         12.0206         12.0206         12.0206          0.0000          0.0000          0.0000
  14.6600         12.0140         12.0140         12.0140          0.0000          0.0000          0.0000
  14.6800         12.0066         12.0066         12.0066          0.0000          0.0000          0.0000
  14.7000         11.9986         11.9986         11.9986          0.0000          0.0000          0.0000
  14.7200         11.9900         11.9900         11.9900          0.0000          0.0000          0.0000
  14.7400         11.9810         11.9810         11.9810          0.0000          0.0000          0.0000
  14.7600         11.9716         11.9716         11.9716          0.0000          0.0000          0.0000
  14.7800         11.9619         11.9619         11.9619          0.0000          0.0000          0.0000
  14.8000         11.9516         11.9516         11.9516          0.0000          0.0000          0.0000
  14.8200         11.9406         11.9406         11.9406          0.0000          0.0000          0.0000
  14.8400         11.9284         11.9284         11.9284          0.0000          0.0000          0.0000
  14.8600         11.9148         11.9148         11.9148          0.0000          0.0000          0.0000
  14.8800         11.8995         11.8995         11.8995          0.0000          0.0000          0.0000
  14.9000         11.8825         11.8825         11.8825          0.0000          0.0000          0.0000
  14.9200         11.8637         11.8637         11.8637          0.0000          0.0000          0.0000
  14.9400         11.8432         11.8432         11.8432          0.0000          0.0000          0.0000
  14.9600         11.8208         11.8208         11.8208          0.0000          0.0000          0.0000
  14.9800         11.7965         11.7965         11.7965          0.0000          0.0000          0.0000
  15.0000         11.7699         11.7699         11.7699          0.0000          0.0000          0.0000
  15.0200         11.7409         11.7409         11.7409          0.0000          0.0000          0.0000
  15.0400         11.7095         11.7095         11.7095          0.0000          0.0000          0.0000
  15.0600         11.6759         11.6759         11.6759          0.0000          0.0000          0.0000
  15.0800         11.6405         11.6405         11.6405          0.0000          0.0000          0.0000
  15.1000         11.6040         11.6040         11.6040          0.0000          0.0000          0.0000
  15.1200         11.5672         11.5672         11.5672          0.0000          0.0000          0.0000
  15.1400         11.5307         11.5307         11.5307          0.0000          0.0000          0.0000
  15.1600         11.4952         11.4952         11.4952          0.0000          0.0000          0.0000
  15.1800         11.4610         11.4610         11.4610          0.0000          0.0000          0.0000
  15.2000         11.4280         11.4280         11.4280          0.0000          0.0000          0.0000
  15.2200         11.3961         11.3961         11.3961          0.0000          0.0000          0.0000
  15.2400         11.3650         11.3650         11.3650          0.0000          0.0000          0.0000
  15.2600         11.3346         11.3346         11.3346          0.0000          0.0000          0.0000
  15.2800         11.3050         11.3050         11.3050          0.0000          0.0000          0.0000
  15.3000         11.2763         11.2763         11.2763          0.0000          0.0000          0.0000
  15.3200         11.2487         11.2487         11.2487          0.0000          0.0000          0.0000
  15.3400         11.2225         11.2225         11.2225          0.0000          0.0000          0.0000
  15.3600         11.1977         11.1977         11.1977          0.0000          0.0000          0.0000
  15.3800         11.1742         11.1742         11.1742          0.0000          0.0000          0.0000
  15.4000         11.1519         11.1519         11.1519          0.0000          0.0000          0.0000
  15.4200         11.1303         11.1303         11.1303          0.0000          0.0000          0.0000
  15.4400         11.1093         11.1093         11.1093          0.0000          0.0000          0.0000
  15.4600         11.0885         11.0885         11.0885          0.0000          0.0000          0.0000
  15.4800         11.0680         11.0680         11.0680          0.0000          0.0000          0.0000
  15.5000         11.0474         11.0474         11.0474          0.0000          0.0000          0.0000
  15.5200         11.0270         11.0270         11.0270          0.0000          0.0000          0.0000
  15.5400         11.0066         11.0066         11.0066          0.0000          0.0000          0.0000
  15.5600         10.9866         10.9866         10.9866          0.0000          0.0000          0.0000
  15.5800         10.9672         10.9672         10.9672          0.0000          0.0000          0.0000
  15.6000         10.9488         10.9488         10.9488          0.0000          0.0000          0.0000
  15.6200         10.9319         10.9319         10.9319          0.0000          0.0000          0.0000
  15.6400         10.9170         10.9170         10.9170          0.0000          0.0000          0.0000
  15.6600         10.9045         10.9045         10.9045          0.0000          0.0000          0.0000
  15.6800         10.8945         10.8945         10.8945          0.0000          0.0000          0.0000
  15.7000         10.8869         10.8869         10.8869          0.0000          0.0000          0.0000
  15.7200         10.8809         10.8809         10.8809          0.0000          0.0000          0.0000
  15.7400         10.8755         10.8755         10.8755          0.0000          0.0000          0.0000
  15.7600         10.8694         10.8694         10.8694          0.0000          0.0000          0.0000
  15.7800         10.8612         10.8612         10.8612          0.0000          0.0000          0.0000
  15.8000         10.8495         10.8495         10.8495          0.0000          0.0000          0.0000
  15.8200         10.8331         10.8331         10.8331          0.0000          0.0000          0.0000
  15.8400         10.8113         10.8113         10.8113          0.0000          0.0000          0.0000
  15.8600         10.7837         10.7837         10.7837          0.0000          0.0000          0.0000
  15.8800         10.7503         10.7503         10.7503          0.0000          0.0000          0.0000
  15.9000         10.7116         10.7116         10.7116          0.0000          0.0000          0.0000
  15.9200         10.6684         10.6684         10.6684          0.0000          0.0000          0.0000
  15.9400         10.6217         10.6217         10.6217          0.0000          0.0000          0.0000
  15.9600         10.5728         10.5728         10.5728          0.0000          0.0000          0.0000
  15.9800         10.5229         10.5229         10.5229          0.0000          0.0000          0.0000
  16.0000         10.4735         10.4735         10.4735          0.0000          0.0000          0.0000
  16.0200         10.4256         10.4256         10.4256          0.0000          0.0000          0.0000
  16.0400         10.3804         10.3804         10.3804          0.0000          0.0000          0.0000
  16.0600         10.3385         10.3385         10.3385          0.0000          0.0000          0.0000
  16.0800         10.3006         10.3006         10.3006          0.0000          0.0000          0.0000
  16.1000         10.2669         10.2669         10.2669          0.0000          0.0000          0.0000
  16.1200         10.2373         10.2373         10.2373          0.0000          0.0000          0.0000
  16.1400         10.2114         10.2114         10.2114          0.0000          0.0000          0.0000
  16.1600         10.1884         10.1884         10.1884          0.0000          0.0000          0.0000
  16.1800         10.1673         10.1673         10.1673          0.0000          0.0000          0.0000
  16.2000         10.1467         10.1467         10.1467          0.0000          0.0000          0.0000
  16.2200         10.1254         10.1254         10.1254          0.0000          0.0000          0.0000
  16.2400         10.1021         10.1021         10.1021          0.0000          0.0000          0.0000
  16.2600         10.0759         10.0759         10.0759          0.0000          0.0000          0.0000
  16.2800         10.0463         10.0463         10.0463          0.0000          0.0000          0.0000
  16.3000         10.0133         10.0133         10.0133          0.0000          0.0000          0.0000
  16.3200          9.9773          9.9773          9.9773          0.0000          0.0000          0.0000
  16.3400          9.9386          9.9386          9.9386          0.0000          0.0000          0.0000
  16.3600          9.8981          9.8981          9.8981          0.0000          0.0000          0.0000
  16.3800          9.8565          9.8565          9.8565          0.0000          0.0000          0.0000
  16.4000          9.8144          9.8144          9.8144          0.0000          0.0000          0.0000
  16.4200          9.7725          9.7725          9.7725          0.0000          0.0000          0.0000
  16.4400          9.7313          9.7313          9.7313          0.0000          0.0000          0.0000
  16.4600          9.6911          9.6911          9.6911          0.0000          0.0000          0.0000
  16.4800          9.6521          9.6521          9.6521          0.0000          0.0000          0.0000
  16.5000          9.6141          9.6141          9.6141          0.0000          0.0000          0.0000
  16.5200          9.5771          9.5771          9.5771          0.0000          0.0000          0.0000
  16.5400          9.5402          9.5402          9.5402          0.0000          0.0000          0.0000
  16.5600          9.5030          9.5030          9.5030          0.0000          0.0000          0.0000
  16.5800          9.4649          9.4649          9.4649          0.0000          0.0000          0.0000
  16.6000          9.4253          9.4253          9.4253          0.0000          0.0000          0.0000
  16.6200          9.3842          9.3842          9.3842          0.0000          0.0000          0.0000
  16.6400          9.3416          9.3416          9.3416          0.0000          0.0000          0.0000
  16.6600          9.2981          9.2981          9.2981          0.0000          0.0000          0.0000
  16.6800          9.2546          9.2546          9.2546          0.0000          0.0000          0.0000
  16.7000          9.2119          9.2119          9.2119          0.0000          0.0000          0.0000
  16.7200          9.1713          9.1713          9.1713          0.0000          0.0000          0.0000
  16.7400          9.1335          9.1335          9.1335          0.0000          0.0000          0.0000
  16.7600          9.0991          9.0991          9.0991          0.0000          0.0000          0.0000
  16.7800          9.0682          9.0682          9.0682          0.0000          0.0000          0.0000
  16.8000          9.0404          9.0404          9.0404          0.0000          0.0000          0.0000
  16.8200          9.0149          9.0149          9.0149          0.0000          0.0000          0.0000
  16.8400          8.9908          8.9908          8.9908          0.0000          0.0000          0.0000
  16.8600          8.9669          8.9669          8.9669          0.0000          0.0000          0.0000
  16.8800          8.9424          8.9424          8.9424          0.0000          0.0000          0.0000
  16.9000          8.9167          8.9167          8.9167          0.0000          0.0000          0.0000
  16.9200          8.8896          8.8896          8.8896          0.0000          0.0000          0.0000
  16.9400          8.8615          8.8615          8.8615          0.0000          0.0000          0.0000
  16.9600          8.8327          8.8327          8.8327          0.0000          0.0000          0.0000
  16.9800          8.8037          8.8037          8.8037          0.0000          0.0000          0.0000
  17.0000          8.7747          8.7747          8.7747          0.0000          0.0000          0.0000
  17.0200          8.7456          8.7456          8.7456          0.0000          0.0000          0.0000
  17.0400          8.7162          8.7162          8.7162          0.0000          0.0000          0.0000
  17.0600          8.6860          8.6860          8.6860          0.0000          0.0000          0.0000
  17.0800          8.6547          8.6547          8.6547          0.0000          0.0000          0.0000
  17.1000          8.6221          8.6221          8.6221          0.0000          0.0000          0.0000
  17.1200          8.5883          8.5883          8.5883          0.0000          0.0000          0.0000
  17.1400          8.5539          8.5539          8.5539          0.0000          0.0000          0.0000
  17.1600          8.5196          8.5196          8.5196          0.0000          0.0000          0.0000
  17.1800          8.4862          8.4862          8.4862          0.0000          0.0000          0.0000
  17.2000          8.4544          8.4544          8.4544          0.0000          0.0000          0.0000
  17.2200          8.4246          8.4246          8.4246          0.0000          0.0000          0.0000
  17.2400          8.3968          8.3968          8.3968          0.0000          0.0000          0.0000
  17.2600          8.3707          8.3707          8.3707          0.0000          0.0000          0.0000
  17.2800          8.3453          8.3453          8.3453          0.0000          0.0000          0.0000
  17.3000          8.3197          8.3197          8.3197          0.0000          0.0000          0.0000
  17.3200          8.2928          8.2928          8.2928          0.0000          0.0000          0.0000
  17.3400          8.2635          8.2635          8.2635          0.0000          0.0000          0.0000
  17.3600          8.2308          8.2308          8.2308          0.0000          0.0000          0.0000
  17.3800          8.1945          8.1945          8.1945          0.0000          0.0000          0.0000
  17.4000          8.1544          8.1544          8.1544          0.0000          0.0000          0.0000
  17.4200          8.1108          8.1108          8.1108          0.0000          0.0000          0.0000
  17.4400          8.0640          8.0640          8.0640          0.0000          0.0000          0.0000
  17.4600          8.0149          8.0149          8.0149          0.0000          0.0000          0.0000
  17.4800          7.9641          7.9641          7.9641          0.0000          0.0000          0.0000
  17.5000          7.9121          7.9121          7.9121          0.0000          0.0000          0.0000
  17.5200          7.8596          7.8596          7.8596          0.0000          0.0000          0.0000
  17.5400          7.8065          7.8065          7.8065          0.0000          0.0000          0.0000
  17.5600          7.7528          7.7528          7.7528          0.0000          0.0000          0.0000
  17.5800          7.6982          7.6982          7.6982          0.0000          0.0000          0.0000
  17.6000          7.6419          7.6419          7.6419          0.0000          0.0000          0.0000
  17.6200          7.5833          7.5833          7.5833          0.0000          0.0000          0.0000
  17.6400          7.5217          7.5217          7.5217          0.0000          0.0000          0.0000
  17.6600          7.4564          7.4564          7.4564          0.0000          0.0000          0.0000
  17.6800          7.3872          7.3872          7.3872          0.0000          0.0000          0.0000
  17.7000          7.3142          7.3142          7.3142          0.0000          0.0000          0.0000
  17.7200          7.2378          7.2378          7.2378          0.0000          0.0000          0.0000
  17.7400          7.1588          7.1588          7.1588          0.0000          0.0000          0.0000
  17.7600          7.0782          7.0782          7.0782          0.0000          0.0000          0.0000
  17.7800          6.9970          6.9970          6.9970          0.0000          0.0000          0.0000
  17.8000          6.9165          6.9165          6.9165          0.0000          0.0000          0.0000
  17.8200          6.8380          6.8380          6.8380          0.0000          0.0000          0.0000
  17.8400          6.7623          6.7623          6.7623          0.0000          0.0000          0.0000
  17.8600          6.6905          6.6905          6.6905          0.0000          0.0000          0.0000
  17.8800          6.6234          6.6234          6.6234          0.0000          0.0000          0.0000
  17.9000          6.5615          6.5615          6.5615          0.0000          0.0000          0.0000
  17.9200          6.5055          6.5055          6.5055          0.0000          0.0000          0.0000
  17.9400          6.4559          6.4559          6.4559          0.0000          0.0000          0.0000
  17.9600          6.4130          6.4130          6.4130          0.0000          0.0000          0.0000
  17.9800          6.3770          6.3770          6.3770          0.0000          0.0000          0.0000
  18.0000          6.3479          6.3479          6.3479          0.0000          0.0000          0.0000
  18.0200          6.3250          6.3250          6.3250          0.0000          0.0000          0.0000
  18.0400          6.3075          6.3075          6.3075          0.0000          0.0000          0.0000
  18.0600          6.2936          6.2936          6.2936          0.0000          0.0000          0.0000
  18.0800          6.2813          6.2813          6.2813          0.0000          0.0000          0.0000
  18.1000          6.2682          6.2682          6.2682          0.0000          0.0000          0.0000
  18.1200          6.2520          6.2520          6.2520          0.0000          0.0000          0.0000
  18.1400          6.2304          6.2304          6.2304          0.0000          0.0000          0.0000
  18.1600          6.2017          6.2017          6.2017          0.0000          0.0000          0.0000
  18.1800          6.1649          6.1649          6.1649          0.0000          0.0000          0.0000
  18.2000          6.1195          6.1195          6.1195          0.0000          0.0000          0.0000
  18.2200          6.0656          6.0656          6.0656          0.0000          0.0000          0.0000
  18.2400          6.0038          6.0038          6.0038          0.0000          0.0000          0.0000
  18.2600          5.9353          5.9353          5.9353          0.0000          0.0000          0.0000
  18.2800          5.8614          5.8614          5.8614          0.0000          0.0000          0.0000
  18.3000          5.7833          5.7833          5.7833          0.0000          0.0000          0.0000
  18.3200          5.7023          5.7023          5.7023          0.0000          0.0000          0.0000
  18.3400          5.6193          5.6193          5.6193          0.0000          0.0000          0.0000
  18.3600          5.5351          5.5351          5.5351          0.0000          0.0000          0.0000
  18.3800          5.4501          5.4501          5.4501          0.0000          0.0000          0.0000
  18.4000          5.3644          5.3644          5.3644          0.0000          0.0000          0.0000
  18.4200          5.2782          5.2782          5.2782          0.0000          0.0000          0.0000
  18.4400          5.1913          5.1913          5.1913          0.0000          0.0000          0.0000
  18.4600          5.1038          5.1038          5.1038          0.0000          0.0000          0.0000
  18.4800          5.0156          5.0156          5.0156          0.0000          0.0000          0.0000
  18.5000          4.9270          4.9270          4.9270          0.0000          0.0000          0.0000
  18.5200          4.8383          4.8383          4.8383          0.0000          0.0000          0.0000
  18.5400          4.7499          4.7499          4.7499          0.0000          0.0000          0.0000
  18.5600          4.6626          4.6626          4.6626          0.0000          0.0000          0.0000
  18.5800          4.5775          4.5775          4.5775          0.0000          0.0000          0.0000
  18.6000          4.4956          4.4956          4.4956          0.0000          0.0000          0.0000
  18.6200          4.4185          4.4185          4.4185          0.0000          0.0000          0.0000
  18.6400          4.3477          4.3477          4.3477          0.0000          0.0000          0.0000
  18.6600          4.2848          4.2848          4.2848          0.0000          0.0000          0.0000
  18.6800          4.2310          4.2310          4.2310          0.0000          0.0000          0.0000
  18.7000          4.1870          4.1870          4.1870          0.0000          0.0000          0.0000
  18.7200          4.1528          4.1528          4.1528          0.0000          0.0000          0.0000
  18.7400          4.1276          4.1276          4.1276          0.0000          0.0000          0.0000
  18.7600          4.1095          4.1095          4.1095          0.0000          0.0000          0.0000
  18.7800          4.0962          4.0962          4.0962          0.0000          0.0000          0.0000
  18.8000          4.0846          4.0846          4.0846          0.0000          0.0000          0.0000
  18.8200          4.0716          4.0716          4.0716          0.0000          0.0000          0.0000
  18.8400          4.0540          4.0540          4.0540          0.0000          0.0000          0.0000
  18.8600          4.0292          4.0292          4.0292          0.0000          0.0000          0.0000
  18.8800          3.9952          3.9952          3.9952          0.0000          0.0000          0.0000
  18.9000          3.9510          3.9510          3.9510          0.0000          0.0000          0.0000
  18.9200          3.8963          3.8963          3.8963          0.0000          0.0000          0.0000
  18.9400          3.8321          3.8321          3.8321          0.0000          0.0000          0.0000
  18.9600          3.7596          3.7596          3.7596          0.0000          0.0000          0.0000
  18.9800          3.6810          3.6810          3.6810          0.0000          0.0000          0.0000
  19.0000          3.5986          3.5986          3.5986          0.0000          0.0000          0.0000
  19.0200          3.5145          3.5145          3.5145          0.0000          0.0000          0.0000
  19.0400          3.4311          3.4311          3.4311          0.0000          0.0000          0.0000
  19.0600          3.3502          3.3502          3.3502          0.0000          0.0000          0.0000
  19.0800          3.2735          3.2735          3.2735          0.0000          0.0000          0.0000
  19.1000          3.2022          3.2022          3.2022          0.0000          0.0000          0.0000
  19.1200          3.1374          3.1374          3.1374          0.0000          0.0000          0.0000
  19.1400          3.0796          3.0796          3.0796          0.0000          0.0000          0.0000
  19.1600          3.0293          3.0293          3.0293          0.0000          0.0000          0.0000
  19.1800          2.9860          2.9860          2.9860          0.0000          0.0000          0.0000
  19.2000          2.9491          2.9491          2.9491          0.0000          0.0000          0.0000
  19.2200          2.9178          2.9178          2.9178          0.0000          0.0000          0.0000
  19.2400          2.8909          2.8909          2.8909          0.0000          0.0000          0.0000
  19.2600          2.8670          2.8670          2.8670          0.0000          0.0000          0.0000
  19.2800          2.8452          2.8452          2.8452          0.0000          0.0000          0.0000
  19.3000          2.8244          2.8244          2.8244          0.0000          0.0000          0.0000
  19.3200          2.8044          2.8044          2.8044          0.0000          0.0000          0.0000
  19.3400          2.7852          2.7852          2.7852          0.0000          0.0000          0.0000
  19.3600          2.7674          2.7674          2.7674          0.0000          0.0000          0.0000
  19.3800          2.7520          2.7520          2.7520          0.0000          0.0000          0.0000
  19.4000          2.7401          2.7401          2.7401          0.0000          0.0000          0.0000
  19.4200          2.7329          2.7329          2.7329          0.0000          0.0000          0.0000
  19.4400          2.7312          2.7312          2.7312          0.0000          0.0000          0.0000
  19.4600          2.7356          2.7356          2.7356          0.0000          0.0000          0.0000
  19.4800          2.7457          2.7457          2.7457          0.0000          0.0000          0.0000
  19.5000          2.7609          2.7609          2.7609          0.0000          0.0000          0.0000
  19.5200          2.7796          2.7796          2.7796          0.0000          0.0000          0.0000
  19.5400          2.7999          2.7999          2.7999          0.0000          0.0000          0.0000
  19.5600          2.8198          2.8198          2.8198          0.0000          0.0000          0.0000
  19.5800          2.8371          2.8371          2.8371          0.0000          0.0000          0.0000
  19.6000          2.8498          2.8498          2.8498          0.0000          0.0000          0.0000
  19.6200          2.8561          2.8561          2.8561          0.0000          0.0000          0.0000
  19.6400          2.8546          2.8546          2.8546          0.0000          0.0000          0.0000
  19.6600          2.8447          2.8447          2.8447          0.0000          0.0000          0.0000
  19.6800          2.8258          2.8258          2.8258          0.0000          0.0000          0.0000
  19.7000          2.7981          2.7981          2.7981          0.0000          0.0000          0.0000
  19.7200          2.7620          2.7620          2.7620          0.0000          0.0000          0.0000
  19.7400          2.7185          2.7185          2.7185          0.0000          0.0000          0.0000
  19.7600          2.6687          2.6687          2.6687          0.0000          0.0000          0.0000
  19.7800          2.6140          2.6140          2.6140          0.0000          0.0000          0.0000
  19.8000          2.5557          2.5557          2.5557          0.0000          0.0000          0.0000
  19.8200          2.4951          2.4951          2.4951          0.0000          0.0000          0.0000
  19.8400          2.4330          2.4330          2.4330          0.0000          0.0000          0.0000
  19.8600          2.3698          2.3698          2.3698          0.0000          0.0000          0.0000
  19.8800          2.3049          2.3049          2.3049          0.0000          0.0000          0.0000
  19.9000          2.2366          2.2366          2.2366          0.0000          0.0000          0.0000
  19.9200          2.1621          2.1621          2.1621          0.0000          0.0000          0.0000
  19.9400          2.0773          2.0773          2.0773          0.0000          0.0000          0.0000
  19.9600          1.9769          1.9769          1.9769          0.0000          0.0000          0.0000
  19.9800          1.8561          1.8561          1.8561          0.0000          0.0000          0.0000
  20.0000          1.7127          1.7127          1.7127          0.0000          0.0000          0.0000
