### imag part of conductivity (in units of 10^15 sec^-1)
   0.0000          3.2898          3.2898          3.2898          0.0000          0.0000          0.0000
   0.0200          3.2519          3.2519          3.2519          0.0000          0.0000          0.0000
   0.0400          3.2140          3.2140          3.2140          0.0000          0.0000          0.0000
   0.0600          3.1761          3.1761          3.1761          0.0000          0.0000          0.0000
   0.0800          3.1382          3.1382          3.1382          0.0000          0.0000          0.0000
   0.1000          3.1002          3.1002          3.1002          0.0000          0.0000          0.0000
   0.1200          3.0622          3.0622          3.0622          0.0000          0.0000          0.0000
   0.1400          3.0242          3.0242          3.0242          0.0000          0.0000          0.0000
   0.1600          2.9862          2.9862          2.9862          0.0000          0.0000          0.0000
   0.1800          2.9481          2.9481          2.9481          0.0000          0.0000          0.0000
   0.2000          2.9099          2.9099          2.9099          0.0000          0.0000          0.0000
   0.2200          2.8717          2.8717          2.8717          0.0000          0.0000          0.0000
   0.2400          2.8334          2.8334          2.8334          0.0000          0.0000          0.0000
   0.2600          2.7950          2.7950          2.7950          0.0000          0.0000          0.0000
   0.2800          2.7566          2.7566          2.7566          0.0000          0.0000          0.0000
   0.3000          2.7181          2.7181          2.7181          0.0000          0.0000          0.0000
   0.3200          2.6795          2.6795          2.6795          0.0000          0.0000          0.0000
   0.3400          2.6408          2.6408          2.6408          0.0000          0.0000          0.0000
   0.3600          2.6020          2.6020          2.6020          0.0000          0.0000          0.0000
   0.3800          2.5631          2.5631          2.5631          0.0000          0.0000          0.0000
   0.4000          2.5240          2.5240          2.5240          0.0000          0.0000          0.0000
   0.4200          2.4849          2.4849          2.4849          0.0000          0.0000          0.0000
   0.4400          2.4456          2.4456          2.4456          0.0000          0.0000          0.0000
   0.4600          2.4062          2.4062          2.4062          0.0000          0.0000          0.0000
   0.4800          2.3666          2.3666          2.3666          0.0000          0.0000          0.0000
   0.5000          2.3269          2.3269          2.3269          0.0000          0.0000          0.0000
   0.5200          2.2871          2.2871          2.2871          0.0000          0.0000          0.0000
   0.5400          2.2470          2.2470          2.2470          0.0000          0.0000          0.0000
   0.5600          2.2068          2.2068          2.2068          0.0000          0.0000          0.0000
   0.5800          2.1664          2.1664          2.1664          0.0000          0.0000          0.0000
   0.6000          2.1259          2.1259          2.1259          0.0000          0.0000          0.0000
   0.6200          2.0851          2.0851          2.0851          0.0000          0.0000          0.0000
   0.6400          2.0442          2.0442          2.0442          0.0000          0.0000          0.0000
   0.6600          2.0030          2.0030          2.0030          0.0000          0.0000          0.0000
   0.6800          1.9616          1.9616          1.9616          0.0000          0.0000          0.0000
   0.7000          1.9200          1.9200          1.9200          0.0000          0.0000          0.0000
   0.7200          1.8782          1.8782          1.8782          0.0000          0.0000          0.0000
   0.7400          1.8361          1.8361          1.8361          0.0000          0.0000          0.0000
   0.7600          1.7937          1.7937          1.7937          0.0000          0.0000          0.0000
   0.7800          1.7511          1.7511          1.7511          0.0000          0.0000          0.0000
   0.8000          1.7083          1.7083          1.7083          0.0000          0.0000          0.0000
   0.8200          1.6651          1.6651          1.6651          0.0000          0.0000          0.0000
   0.8400          1.6217          1.6217          1.6217          0.0000          0.0000          0.0000
   0.8600          1.5780          1.5780          1.5780          0.0000          0.0000          0.0000
   0.8800          1.5339          1.5339          1.5339          0.0000          0.0000          0.0000
   0.9000          1.4895          1.4895          1.4895          0.0000          0.0000          0.0000
   0.9200          1.4448          1.4448          1.4448          0.0000          0.0000          0.0000
   0.9400          1.3998          1.3998          1.3998          0.0000          0.0000          0.0000
   0.9600          1.3544          1.3544          1.3544          0.0000          0.0000          0.0000
   0.9800          1.3087          1.3087          1.3087          0.0000          0.0000          0.0000
   1.0000          1.2625          1.2625          1.2625          0.0000          0.0000          0.0000
   1.0200          1.2160          1.2160          1.2160          0.0000          0.0000          0.0000
   1.0400          1.1691          1.1691          1.1691          0.0000          0.0000          0.0000
   1.0600          1.1218          1.1218          1.1218          0.0000          0.0000          0.0000
   1.0800          1.0740          1.0740          1.0740          0.0000          0.0000          0.0000
   1.1000          1.0258          1.0258          1.0258          0.0000          0.0000          0.0000
   1.1200          0.9771          0.9771          0.9771          0.0000          0.0000          0.0000
   1.1400          0.9280          0.9280          0.9280          0.0000          0.0000          0.0000
   1.1600          0.8784          0.8784          0.8784          0.0000          0.0000          0.0000
   1.1800          0.8283          0.8283          0.8283          0.0000          0.0000          0.0000
   1.2000          0.7776          0.7776          0.7776          0.0000          0.0000          0.0000
   1.2200          0.7264          0.7264          0.7264          0.0000          0.0000          0.0000
   1.2400          0.6747          0.6747          0.6747          0.0000          0.0000          0.0000
   1.2600          0.6224          0.6224          0.6224          0.0000          0.0000          0.0000
   1.2800          0.5695          0.5695          0.5695          0.0000          0.0000          0.0000
   1.3000          0.5161          0.5161          0.5161          0.0000          0.0000          0.0000
   1.3200          0.4619          0.4619          0.4619          0.0000          0.0000          0.0000
   1.3400          0.4072          0.4072          0.4072          0.0000          0.0000          0.0000
   1.3600          0.3517          0.3517          0.3517          0.0000          0.0000          0.0000
   1.3800          0.2956          0.2956          0.2956          0.0000          0.0000          0.0000
   1.4000          0.2387          0.2387          0.2387          0.0000          0.0000          0.0000
   1.4200          0.1811          0.1811          0.1811          0.0000          0.0000          0.0000
   1.4400          0.1228          0.1228          0.1228          0.0000          0.0000          0.0000
   1.4600          0.0636          0.0636          0.0636          0.0000          0.0000          0.0000
   1.4800          0.0036          0.0036          0.0036          0.0000          0.0000          0.0000
   1.5000         -0.0572         -0.0572         -0.0572          0.0000          0.0000          0.0000
   1.5200         -0.1189         -0.1189         -0.1189          0.0000          0.0000          0.0000
   1.5400         -0.1816         -0.1816         -0.1816          0.0000          0.0000          0.0000
   1.5600         -0.2451         -0.2451         -0.2451          0.0000          0.0000          0.0000
   1.5800         -0.3097         -0.3097         -0.3097          0.0000          0.0000          0.0000
   1.6000         -0.3753         -0.3753         -0.3753          0.0000          0.0000          0.0000
   1.6200         -0.4419         -0.4419         -0.4419          0.0000          0.0000          0.0000
   1.6400         -0.5096         -0.5096         -0.5096          0.0000          0.0000          0.0000
   1.6600         -0.5785         -0.5785         -0.5785          0.0000          0.0000          0.0000
   1.6800         -0.6486         -0.6486         -0.6486          0.0000          0.0000          0.0000
   1.7000         -0.7198         -0.7198         -0.7198          0.0000          0.0000          0.0000
   1.7200         -0.7924         -0.7924         -0.7924          0.0000          0.0000          0.0000
   1.7400         -0.8663         -0.8663         -0.8663          0.0000          0.0000          0.0000
   1.7600         -0.9416         -0.9416         -0.9416          0.0000          0.0000          0.0000
   1.7800         -1.0183         -1.0183         -1.0183          0.0000          0.0000          0.0000
   1.8000         -1.0965         -1.0965         -1.0965          0.0000          0.0000          0.0000
   1.8200         -1.1763         -1.1763         -1.1763          0.0000          0.0000          0.0000
   1.8400         -1.2577         -1.2577         -1.2577          0.0000          0.0000          0.0000
   1.8600         -1.3409         -1.3409         -1.3409          0.0000          0.0000          0.0000
   1.8800         -1.4258         -1.4258         -1.4258          0.0000          0.0000          0.0000
   1.9000         -1.5126         -1.5126         -1.5126          0.0000          0.0000          0.0000
   1.9200         -1.6014         -1.6014         -1.6014          0.0000          0.0000          0.0000
   1.9400         -1.6922         -1.6922         -1.6922          0.0000          0.0000          0.0000
   1.9600         -1.7852         -1.7852         -1.7852          0.0000          0.0000          0.0000
   1.9800         -1.8805         -1.8805         -1.8805          0.0000          0.0000          0.0000
   2.0000         -1.9781         -1.9781         -1.9781          0.0000          0.0000          0.0000
   2.0200         -2.0783         -2.0783         -2.0783          0.0000          0.0000          0.0000
   2.0400         -2.1810         -2.1810         -2.1810          0.0000          0.0000          0.0000
   2.0600         -2.2866         -2.2866         -2.2866          0.0000          0.0000          0.0000
   2.0800         -2.3952         -2.3952         -2.3952          0.0000          0.0000          0.0000
   2.1000         -2.5068         -2.5068         -2.5068          0.0000          0.0000          0.0000
   2.1200         -2.6218         -2.6218         -2.6218          0.0000          0.0000          0.0000
   2.1400         -2.7403         -2.7403         -2.7403          0.0000          0.0000          0.0000
   2.1600         -2.8625         -2.8625         -2.8625          0.0000          0.0000          0.0000
   2.1800         -2.9887         -2.9887         -2.9887          0.0000          0.0000          0.0000
   2.2000         -3.1192         -3.1192         -3.1192          0.0000          0.0000          0.0000
   2.2200         -3.2541         -3.2541         -3.2541          0.0000          0.0000          0.0000
   2.2400         -3.3940         -3.3940         -3.3940          0.0000          0.0000          0.0000
   2.2600         -3.5390         -3.5390         -3.5390          0.0000          0.0000          0.0000
   2.2800         -3.6896         -3.6896         -3.6896          0.0000          0.0000          0.0000
   2.3000         -3.8463         -3.8463         -3.8463          0.0000          0.0000          0.0000
   2.3200         -4.0094         -4.0094         -4.0094          0.0000          0.0000          0.0000
   2.3400         -4.1794         -4.1794         -4.1794          0.0000          0.0000          0.0000
   2.3600         -4.3570         -4.3570         -4.3570          0.0000          0.0000          0.0000
   2.3800         -4.5425         -4.5425         -4.5425          0.0000          0.0000          0.0000
   2.4000         -4.7365         -4.7365         -4.7365          0.0000          0.0000          0.0000
   2.4200         -4.9395         -4.9395         -4.9395          0.0000          0.0000          0.0000
   2.4400         -5.1517         -5.1517         -5.1517          0.0000          0.0000          0.0000
   2.4600         -5.3734         -5.3734         -5.3734          0.0000          0.0000          0.0000
   2.4800         -5.6043         -5.6043         -5.6043          0.0000          0.0000          0.0000
   2.5000         -5.8441         -5.8441         -5.8441          0.0000          0.0000          0.0000
   2.5200         -6.0917         -6.0917         -6.0917          0.0000          0.0000          0.0000
   2.5400         -6.3458         -6.3458         -6.3458          0.0000          0.0000          0.0000
   2.5600         -6.6043         -6.6043         -6.6043          0.0000          0.0000          0.0000
   2.5800         -6.8647         -6.8647         -6.8647          0.0000          0.0000          0.0000
   2.6000         -7.1237         -7.1237         -7.1237          0.0000          0.0000          0.0000
   2.6200         -7.3774         -7.3774         -7.3774          0.0000          0.0000          0.0000
   2.6400         -7.6210         -7.6210         -7.6210          0.0000          0.0000          0.0000
   2.6600         -7.8494         -7.8494         -7.8494          0.0000          0.0000          0.0000
   2.6800         -8.0569         -8.0569         -8.0569          0.0000          0.0000          0.0000
   2.7000         -8.2376         -8.2376         -8.2376          0.0000          0.0000          0.0000
   2.7200         -8.3865         -8.3865         -8.3865          0.0000          0.0000          0.0000
   2.7400         -8.4994         -8.4994         -8.4994          0.0000          0.0000          0.0000
   2.7600         -8.5740         -8.5740         -8.5740          0.0000          0.0000          0.0000
   2.7800         -8.6101         -8.6101         -8.6101          0.0000          0.0000          0.0000
   2.8000         -8.6097         -8.6097         -8.6097          0.0000          0.0000          0.0000
   2.8200         -8.5773         -8.5773         -8.5773          0.0000          0.0000          0.0000
   2.8400         -8.5183         -8.5183         -8.5183          0.0000          0.0000          0.0000
   2.8600         -8.4395         -8.4395         -8.4395          0.0000          0.0000          0.0000
   2.8800         -8.3475         -8.3475         -8.3475          0.0000          0.0000          0.0000
   2.9000         -8.2488         -8.2488         -8.2488          0.0000          0.0000          0.0000
   2.9200         -8.1491         -8.1491         -8.1491          0.0000          0.0000          0.0000
   2.9400         -8.0533         -8.0533         -8.0533          0.0000          0.0000          0.0000
   2.9600         -7.9653         -7.9653         -7.9653          0.0000          0.0000          0.0000
   2.9800         -7.8881         -7.8881         -7.8881          0.0000          0.0000          0.0000
   3.0000         -7.8236         -7.8236         -7.8236          0.0000          0.0000          0.0000
   3.0200         -7.7728         -7.7728         -7.7728          0.0000          0.0000          0.0000
   3.0400         -7.7352         -7.7352         -7.7352          0.0000          0.0000          0.0000
   3.0600         -7.7088         -7.7088         -7.7088          0.0000          0.0000          0.0000
   3.0800         -7.6904         -7.6904         -7.6904          0.0000          0.0000          0.0000
   3.1000         -7.6759         -7.6759         -7.6759          0.0000          0.0000          0.0000
   3.1200         -7.6609         -7.6609         -7.6609          0.0000          0.0000          0.0000
   3.1400         -7.6416         -7.6416         -7.6416          0.0000          0.0000          0.0000
   3.1600         -7.6155         -7.6155         -7.6155          0.0000          0.0000          0.0000
   3.1800         -7.5826         -7.5826         -7.5826          0.0000          0.0000          0.0000
   3.2000         -7.5453         -7.5453         -7.5453          0.0000          0.0000          0.0000
   3.2200         -7.5088         -7.5088         -7.5088          0.0000          0.0000          0.0000
   3.2400         -7.4795         -7.4795         -7.4795          0.0000          0.0000          0.0000
   3.2600         -7.4648         -7.4648         -7.4648          0.0000          0.0000          0.0000
   3.2800         -7.4706         -7.4706         -7.4706          0.0000          0.0000          0.0000
   3.3000         -7.5008         -7.5008         -7.5008          0.0000          0.0000          0.0000
   3.3200         -7.5559         -7.5559         -7.5559          0.0000          0.0000          0.0000
   3.3400         -7.6330         -7.6330         -7.6330          0.0000          0.0000          0.0000
   3.3600         -7.7264         -7.7264         -7.7264          0.0000          0.0000          0.0000
   3.3800         -7.8288         -7.8288         -7.8288          0.0000          0.0000          0.0000
   3.4000         -7.9322         -7.9322         -7.9322          0.0000          0.0000          0.0000
   3.4200         -8.0290         -8.0290         -8.0290          0.0000          0.0000          0.0000
   3.4400         -8.1126         -8.1126         -8.1126          0.0000          0.0000          0.0000
   3.4600         -8.1773         -8.1773         -8.1773          0.0000          0.0000          0.0000
   3.4800         -8.2178         -8.2178         -8.2178          0.0000          0.0000          0.0000
   3.5000         -8.2288         -8.2288         -8.2288          0.0000          0.0000          0.0000
   3.5200         -8.2040         -8.2040         -8.2040          0.0000          0.0000          0.0000
   3.5400         -8.1360         -8.1360         -8.1360          0.0000          0.0000          0.0000
   3.5600         -8.0161         -8.0161         -8.0161          0.0000          0.0000          0.0000
   3.5800         -7.8337         -7.8337         -7.8337          0.0000          0.0000          0.0000
   3.6000         -7.5770         -7.5770         -7.5770          0.0000          0.0000          0.0000
   3.6200         -7.2339         -7.2339         -7.2339          0.0000          0.0000          0.0000
   3.6400         -6.7925         -6.7925         -6.7925          0.0000          0.0000          0.0000
   3.6600         -6.2428         -6.2428         -6.2428          0.0000          0.0000          0.0000
   3.6800         -5.5788         -5.5788         -5.5788          0.0000          0.0000          0.0000
   3.7000         -4.7993         -4.7993         -4.7993          0.0000          0.0000          0.0000
   3.7200         -3.9099         -3.9099         -3.9099          0.0000          0.0000          0.0000
   3.7400         -2.9228         -2.9228         -2.9228          0.0000          0.0000          0.0000
   3.7600         -1.8574         -1.8574         -1.8574          0.0000          0.0000          0.0000
   3.7800         -0.7388         -0.7388         -0.7388          0.0000          0.0000          0.0000
   3.8000          0.4037          0.4037          0.4037          0.0000          0.0000          0.0000
   3.8200          1.5383          1.5383          1.5383          0.0000          0.0000          0.0000
   3.8400          2.6340          2.6340          2.6340          0.0000          0.0000          0.0000
   3.8600          3.6633          3.6633          3.6633          0.0000          0.0000          0.0000
   3.8800          4.6045          4.6045          4.6045          0.0000          0.0000          0.0000
   3.9000          5.4440          5.4440          5.4440          0.0000          0.0000          0.0000
   3.9200          6.1776          6.1776          6.1776          0.0000          0.0000          0.0000
   3.9400          6.8094          6.8094          6.8094          0.0000          0.0000          0.0000
   3.9600          7.3502          7.3502          7.3502          0.0000          0.0000          0.0000
   3.9800          7.8141          7.8141          7.8141          0.0000          0.0000          0.0000
   4.0000          8.2150          8.2150          8.2150          0.0000          0.0000          0.0000
   4.0200          8.5637          8.5637          8.5637          0.0000          0.0000          0.0000
   4.0400          8.8651          8.8651          8.8651          0.0000          0.0000          0.0000
   4.0600          9.1183          9.1183          9.1183          0.0000          0.0000          0.0000
   4.0800          9.3177          9.3177          9.3177          0.0000          0.0000          0.0000
   4.1000          9.4549          9.4549          9.4549          0.0000          0.0000          0.0000
   4.1200          9.5225          9.5225          9.5225          0.0000          0.0000          0.0000
   4.1400          9.5163          9.5163          9.5163          0.0000          0.0000          0.0000
   4.1600          9.4381          9.4381          9.4381          0.0000          0.0000          0.0000
   4.1800          9.2963          9.2963          9.2963          0.0000          0.0000          0.0000
   4.2000          9.1057          9.1057          9.1057          0.0000          0.0000          0.0000
   4.2200          8.8855          8.8855          8.8855          0.0000          0.0000          0.0000
   4.2400          8.6572          8.6572          8.6572          0.0000          0.0000          0.0000
   4.2600          8.4422          8.4422          8.4422          0.0000          0.0000          0.0000
   4.2800          8.2591          8.2591          8.2591          0.0000          0.0000          0.0000
   4.3000          8.1221          8.1221          8.1221          0.0000          0.0000          0.0000
   4.3200          8.0399          8.0399          8.0399          0.0000          0.0000          0.0000
   4.3400          8.0156          8.0156          8.0156          0.0000          0.0000          0.0000
   4.3600          8.0469          8.0469          8.0469          0.0000          0.0000          0.0000
   4.3800          8.1268          8.1268          8.1268          0.0000          0.0000          0.0000
   4.4000          8.2455          8.2455          8.2455          0.0000          0.0000          0.0000
   4.4200          8.3911          8.3911          8.3911          0.0000          0.0000          0.0000
   4.4400          8.5518          8.5518          8.5518          0.0000          0.0000          0.0000
   4.4600          8.7162          8.7162          8.7162          0.0000          0.0000          0.0000
   4.4800          8.8750          8.8750          8.8750          0.0000          0.0000          0.0000
   4.5000          9.0210          9.0210          9.0210          0.0000          0.0000          0.0000
   4.5200          9.1489          9.1489          9.1489          0.0000          0.0000          0.0000
   4.5400          9.2560          9.2560          9.2560          0.0000          0.0000          0.0000
   4.5600          9.3412          9.3412          9.3412          0.0000          0.0000          0.0000
   4.5800          9.4047          9.4047          9.4047          0.0000          0.0000          0.0000
   4.6000          9.4478          9.4478          9.4478          0.0000          0.0000          0.0000
   4.6200          9.4727          9.4727          9.4727          0.0000          0.0000          0.0000
   4.6400          9.4815          9.4815          9.4815          0.0000          0.0000          0.0000
   4.6600          9.4774          9.4774          9.4774          0.0000          0.0000          0.0000
   4.6800          9.4639          9.4639          9.4639          0.0000          0.0000          0.0000
   4.7000          9.4454          9.4454          9.4454          0.0000          0.0000          0.0000
   4.7200          9.4272          9.4272          9.4272          0.0000          0.0000          0.0000
   4.7400          9.4156          9.4156          9.4156          0.0000          0.0000          0.0000
   4.7600          9.4175          9.4175          9.4175          0.0000          0.0000          0.0000
   4.7800          9.4395          9.4395          9.4395          0.0000          0.0000          0.0000
   4.8000          9.4872          9.4872          9.4872          0.0000          0.0000          0.0000
   4.8200          9.5642          9.5642          9.5642          0.0000          0.0000          0.0000
   4.8400          9.6713          9.6713          9.6713          0.0000          0.0000          0.0000
   4.8600          9.8063          9.8063          9.8063          0.0000          0.0000          0.0000
   4.8800          9.9639          9.9639          9.9639          0.0000          0.0000          0.0000
   4.9000         10.1359         10.1359         10.1359          0.0000          0.0000          0.0000
   4.9200         10.3122         10.3122         10.3122          0.0000          0.0000          0.0000
   4.9400         10.4815         10.4815         10.4815          0.0000          0.0000          0.0000
   4.9600         10.6322         10.6322         10.6322          0.0000          0.0000          0.0000
   4.9800         10.7538         10.7538         10.7538          0.0000          0.0000          0.0000
   5.0000         10.8380         10.8380         10.8380          0.0000          0.0000          0.0000
   5.0200         10.8794         10.8794         10.8794          0.0000          0.0000          0.0000
   5.0400         10.8761         10.8761         10.8761          0.0000          0.0000          0.0000
   5.0600         10.8302         10.8302         10.8302          0.0000          0.0000          0.0000
   5.0800         10.7466         10.7466         10.7466          0.0000          0.0000          0.0000
   5.1000         10.6332         10.6332         10.6332          0.0000          0.0000          0.0000
   5.1200         10.4990         10.4990         10.4990          0.0000          0.0000          0.0000
   5.1400         10.3536         10.3536         10.3536          0.0000          0.0000          0.0000
   5.1600         10.2060         10.2060         10.2060          0.0000          0.0000          0.0000
   5.1800         10.0647         10.0647         10.0647          0.0000          0.0000          0.0000
   5.2000          9.9367          9.9367          9.9367          0.0000          0.0000          0.0000
   5.2200          9.8279          9.8279          9.8279          0.0000          0.0000          0.0000
   5.2400          9.7429          9.7429          9.7429          0.0000          0.0000          0.0000
   5.2600          9.6849          9.6849          9.6849          0.0000          0.0000          0.0000
   5.2800          9.6559          9.6559          9.6559          0.0000          0.0000          0.0000
   5.3000          9.6560          9.6560          9.6560          0.0000          0.0000          0.0000
   5.3200          9.6842          9.6842          9.6842          0.0000          0.0000          0.0000
   5.3400          9.7378          9.7378          9.7378          0.0000          0.0000          0.0000
   5.3600          9.8124          9.8124          9.8124          0.0000          0.0000          0.0000
   5.3800          9.9028          9.9028          9.9028          0.0000          0.0000          0.0000
   5.4000         10.0025         10.0025         10.0025          0.0000          0.0000          0.0000
   5.4200         10.1046         10.1046         10.1046          0.0000          0.0000          0.0000
   5.4400         10.2018         10.2018         10.2018          0.0000          0.0000          0.0000
   5.4600         10.2876         10.2876         10.2876          0.0000          0.0000          0.0000
   5.4800         10.3565         10.3565         10.3565          0.0000          0.0000          0.0000
   5.5000         10.4045         10.4045         10.4045          0.0000          0.0000          0.0000
   5.5200         10.4298         10.4298         10.4298          0.0000          0.0000          0.0000
   5.5400         10.4328         10.4328         10.4328          0.0000          0.0000          0.0000
   5.5600         10.4162         10.4162         10.4162          0.0000          0.0000          0.0000
   5.5800         10.3840         10.3840         10.3840          0.0000          0.0000          0.0000
   5.6000         10.3410         10.3410         10.3410          0.0000          0.0000          0.0000
   5.6200         10.2921         10.2921         10.2921          0.0000          0.0000          0.0000
   5.6400         10.2407         10.2407         10.2407          0.0000          0.0000          0.0000
   5.6600         10.1892         10.1892         10.1892          0.0000          0.0000          0.0000
   5.6800         10.1379         10.1379         10.1379          0.0000          0.0000          0.0000
   5.7000         10.0861         10.0861         10.0861          0.0000          0.0000          0.0000
   5.7200         10.0323         10.0323         10.0323          0.0000          0.0000          0.0000
   5.7400          9.9745          9.9745          9.9745          0.0000          0.0000          0.0000
   5.7600          9.9115          9.9115          9.9115          0.0000          0.0000          0.0000
   5.7800          9.8428          9.8428          9.8428          0.0000          0.0000          0.0000
   5.8000          9.7690          9.7690          9.7690          0.0000          0.0000          0.0000
   5.8200          9.6918          9.6918          9.6918          0.0000          0.0000          0.0000
   5.8400          9.6140          9.6140          9.6140          0.0000          0.0000          0.0000
   5.8600          9.5393          9.5393          9.5393          0.0000          0.0000          0.0000
   5.8800          9.4718          9.4718          9.4718          0.0000          0.0000          0.0000
   5.9000          9.4160          9.4160          9.4160          0.0000          0.0000          0.0000
   5.9200          9.3757          9.3757          9.3757          0.0000          0.0000          0.0000
   5.9400          9.3539          9.3539          9.3539          0.0000          0.0000          0.0000
   5.9600          9.3517          9.3517          9.3517          0.0000          0.0000          0.0000
   5.9800          9.3685          9.3685          9.3685          0.0000          0.0000          0.0000
   6.0000          9.4018          9.4018          9.4018          0.0000          0.0000          0.0000
   6.0200          9.4474          9.4474          9.4474          0.0000          0.0000          0.0000
   6.0400          9.5001          9.5001          9.5001          0.0000          0.0000          0.0000
   6.0600          9.5544          9.5544          9.5544          0.0000          0.0000          0.0000
   6.0800          9.6055          9.6055          9.6055          0.0000          0.0000          0.0000
   6.1000          9.6492          9.6492          9.6492          0.0000          0.0000          0.0000
   6.1200          9.6827          9.6827          9.6827          0.0000          0.0000          0.0000
   6.1400          9.7042          9.7042          9.7042          0.0000          0.0000          0.0000
   6.1600          9.7131          9.7131          9.7131          0.0000          0.0000          0.0000
   6.1800          9.7094          9.7094          9.7094          0.0000          0.0000          0.0000
   6.2000          9.6937          9.6937          9.6937          0.0000          0.0000          0.0000
   6.2200          9.6665          9.6665          9.6665          0.0000          0.0000          0.0000
   6.2400          9.6285          9.6285          9.6285          0.0000          0.0000          0.0000
   6.2600          9.5804          9.5804          9.5804          0.0000          0.0000          0.0000
   6.2800          9.5228          9.5228          9.5228          0.0000          0.0000          0.0000
   6.3000          9.4568          9.4568          9.4568          0.0000          0.0000          0.0000
   6.3200          9.3835          9.3835          9.3835          0.0000          0.0000          0.0000
   6.3400          9.3043          9.3043          9.3043          0.0000          0.0000          0.0000
   6.3600          9.2211          9.2211          9.2211          0.0000          0.0000          0.0000
   6.3800          9.1357          9.1357          9.1357          0.0000          0.0000          0.0000
   6.4000          9.0502          9.0502          9.0502          0.0000          0.0000          0.0000
   6.4200          8.9667          8.9667          8.9667          0.0000          0.0000          0.0000
   6.4400          8.8871          8.8871          8.8871          0.0000          0.0000          0.0000
   6.4600          8.8135          8.8135          8.8135          0.0000          0.0000          0.0000
   6.4800          8.7476          8.7476          8.7476          0.0000          0.0000          0.0000
   6.5000          8.6910          8.6910          8.6910          0.0000          0.0000          0.0000
   6.5200          8.6448          8.6448          8.6448          0.0000          0.0000          0.0000
   6.5400          8.6096          8.6096          8.6096          0.0000          0.0000          0.0000
   6.5600          8.5855          8.5855          8.5855          0.0000          0.0000          0.0000
   6.5800          8.5717          8.5717          8.5717          0.0000          0.0000          0.0000
   6.6000          8.5669          8.5669          8.5669          0.0000          0.0000          0.0000
   6.6200          8.5694          8.5694          8.5694          0.0000          0.0000          0.0000
   6.6400          8.5774          8.5774          8.5774          0.0000          0.0000          0.0000
   6.6600          8.5887          8.5887          8.5887          0.0000          0.0000          0.0000
   6.6800          8.6013          8.6013          8.6013          0.0000          0.0000          0.0000
   6.7000          8.6134          8.6134          8.6134          0.0000          0.0000          0.0000
   6.7200          8.6232          8.6232          8.6232          0.0000          0.0000          0.0000
   6.7400          8.6290          8.6290          8.6290          0.0000          0.0000          0.0000
   6.7600          8.6298          8.6298          8.6298          0.0000          0.0000          0.0000
   6.7800          8.6245          8.6245          8.6245          0.0000          0.0000          0.0000
   6.8000          8.6126          8.6126          8.6126          0.0000          0.0000          0.0000
   6.8200          8.5943          8.5943          8.5943          0.0000          0.0000          0.0000
   6.8400          8.5697          8.5697          8.5697          0.0000          0.0000          0.0000
   6.8600          8.5398          8.5398          8.5398          0.0000          0.0000          0.0000
   6.8800          8.5054          8.5054          8.5054          0.0000          0.0000          0.0000
   6.9000          8.4677          8.4677          8.4677          0.0000          0.0000          0.0000
   6.9200          8.4279          8.4279          8.4279          0.0000          0.0000          0.0000
   6.9400          8.3871          8.3871          8.3871          0.0000          0.0000          0.0000
   6.9600          8.3465          8.3465          8.3465          0.0000          0.0000          0.0000
   6.9800          8.3068          8.3068          8.3068          0.0000          0.0000          0.0000
   7.0000          8.2687          8.2687          8.2687          0.0000          0.0000          0.0000
   7.0200          8.2322          8.2322          8.2322          0.0000          0.0000          0.0000
   7.0400          8.1975          8.1975          8.1975          0.0000          0.0000          0.0000
   7.0600          8.1641          8.1641          8.1641          0.0000          0.0000          0.0000
   7.0800          8.1320          8.1320          8.1320          0.0000          0.0000          0.0000
   7.1000          8.1013          8.1013          8.1013          0.0000          0.0000          0.0000
   7.1200          8.0727          8.0727          8.0727          0.0000          0.0000          0.0000
   7.1400          8.0473          8.0473          8.0473          0.0000          0.0000          0.0000
   7.1600          8.0266          8.0266          8.0266          0.0000          0.0000          0.0000
   7.1800          8.0121          8.0121          8.0121          0.0000          0.0000          0.0000
   7.2000          8.0050          8.0050          8.0050          0.0000          0.0000          0.0000
   7.2200          8.0062          8.0062          8.0062          0.0000          0.0000          0.0000
   7.2400          8.0158          8.0158          8.0158          0.0000          0.0000          0.0000
   7.2600          8.0330          8.0330          8.0330          0.0000          0.0000          0.0000
   7.2800          8.0566          8.0566          8.0566          0.0000          0.0000          0.0000
   7.3000          8.0846          8.0846          8.0846          0.0000          0.0000          0.0000
   7.3200          8.1149          8.1149          8.1149          0.0000          0.0000          0.0000
   7.3400          8.1450          8.1450          8.1450          0.0000          0.0000          0.0000
   7.3600          8.1727          8.1727          8.1727          0.0000          0.0000          0.0000
   7.3800          8.1958          8.1958          8.1958          0.0000          0.0000          0.0000
   7.4000          8.2128          8.2128          8.2128          0.0000          0.0000          0.0000
   7.4200          8.2227          8.2227          8.2227          0.0000          0.0000          0.0000
   7.4400          8.2249          8.2249          8.2249          0.0000          0.0000          0.0000
   7.4600          8.2195          8.2195          8.2195          0.0000          0.0000          0.0000
   7.4800          8.2070          8.2070          8.2070          0.0000          0.0000          0.0000
   7.5000          8.1880          8.1880          8.1880          0.0000          0.0000          0.0000
   7.5200          8.1635          8.1635          8.1635          0.0000          0.0000          0.0000
   7.5400          8.1345          8.1345          8.1345          0.0000          0.0000          0.0000
   7.5600          8.1019          8.1019          8.1019          0.0000          0.0000          0.0000
   7.5800          8.0667          8.0667          8.0667          0.0000          0.0000          0.0000
   7.6000          8.0297          8.0297          8.0297          0.0000          0.0000          0.0000
   7.6200          7.9917          7.9917          7.9917          0.0000          0.0000          0.0000
   7.6400          7.9533          7.9533          7.9533          0.0000          0.0000          0.0000
   7.6600          7.9151          7.9151          7.9151          0.0000          0.0000          0.0000
   7.6800          7.8775          7.8775          7.8775          0.0000          0.0000          0.0000
   7.7000          7.8413          7.8413          7.8413          0.0000          0.0000          0.0000
   7.7200          7.8069          7.8069          7.8069          0.0000          0.0000          0.0000
   7.7400          7.7751          7.7751          7.7751          0.0000          0.0000          0.0000
   7.7600          7.7467          7.7467          7.7467          0.0000          0.0000          0.0000
   7.7800          7.7223          7.7223          7.7223          0.0000          0.0000          0.0000
   7.8000          7.7025          7.7025          7.7025          0.0000          0.0000          0.0000
   7.8200          7.6875          7.6875          7.6875          0.0000          0.0000          0.0000
   7.8400          7.6773          7.6773          7.6773          0.0000          0.0000          0.0000
   7.8600          7.6715          7.6715          7.6715          0.0000          0.0000          0.0000
   7.8800          7.6694          7.6694          7.6694          0.0000          0.0000          0.0000
   7.9000          7.6705          7.6705          7.6705          0.0000          0.0000          0.0000
   7.9200          7.6738          7.6738          7.6738          0.0000          0.0000          0.0000
   7.9400          7.6787          7.6787          7.6787          0.0000          0.0000          0.0000
   7.9600          7.6848          7.6848          7.6848          0.0000          0.0000          0.0000
   7.9800          7.6914          7.6914          7.6914          0.0000          0.0000          0.0000
   8.0000          7.6984          7.6984          7.6984          0.0000          0.0000          0.0000
   8.0200          7.7053          7.7053          7.7053          0.0000          0.0000          0.0000
   8.0400          7.7116          7.7116          7.7116          0.0000          0.0000          0.0000
   8.0600          7.7168          7.7168          7.7168          0.0000          0.0000          0.0000
   8.0800          7.7199          7.7199          7.7199          0.0000          0.0000          0.0000
   8.1000          7.7200          7.7200          7.7200          0.0000          0.0000          0.0000
   8.1200          7.7163          7.7163          7.7163          0.0000          0.0000          0.0000
   8.1400          7.7080          7.7080          7.7080          0.0000          0.0000          0.0000
   8.1600          7.6945          7.6945          7.6945          0.0000          0.0000          0.0000
   8.1800          7.6761          7.6761          7.6761          0.0000          0.0000          0.0000
   8.2000          7.6531          7.6531          7.6531          0.0000          0.0000          0.0000
   8.2200          7.6266          7.6266          7.6266          0.0000          0.0000          0.0000
   8.2400          7.5981          7.5981          7.5981          0.0000          0.0000          0.0000
   8.2600          7.5691          7.5691          7.5691          0.0000          0.0000          0.0000
   8.2800          7.5412          7.5412          7.5412          0.0000          0.0000          0.0000
   8.3000          7.5157          7.5157          7.5157          0.0000          0.0000          0.0000
   8.3200          7.4934          7.4934          7.4934          0.0000          0.0000          0.0000
   8.3400          7.4745          7.4745          7.4745          0.0000          0.0000          0.0000
   8.3600          7.4589          7.4589          7.4589          0.0000          0.0000          0.0000
   8.3800          7.4459          7.4459          7.4459          0.0000          0.0000          0.0000
   8.4000          7.4345          7.4345          7.4345          0.0000          0.0000          0.0000
   8.4200          7.4238          7.4238          7.4238          0.0000          0.0000          0.0000
   8.4400          7.4128          7.4128          7.4128          0.0000          0.0000          0.0000
   8.4600          7.4010          7.4010          7.4010          0.0000          0.0000          0.0000
   8.4800          7.3880          7.3880          7.3880          0.0000          0.0000          0.0000
   8.5000          7.3736          7.3736          7.3736          0.0000          0.0000          0.0000
   8.5200          7.3580          7.3580          7.3580          0.0000          0.0000          0.0000
   8.5400          7.3415          7.3415          7.3415          0.0000          0.0000          0.0000
   8.5600          7.3246          7.3246          7.3246          0.0000          0.0000          0.0000
   8.5800          7.3080          7.3080          7.3080          0.0000          0.0000          0.0000
   8.6000          7.2925          7.2925          7.2925          0.0000          0.0000          0.0000
   8.6200          7.2790          7.2790          7.2790          0.0000          0.0000          0.0000
   8.6400          7.2681          7.2681          7.2681          0.0000          0.0000          0.0000
   8.6600          7.2602          7.2602          7.2602          0.0000          0.0000          0.0000
   8.6800          7.2551          7.2551          7.2551          0.0000          0.0000          0.0000
   8.7000          7.2523          7.2523          7.2523          0.0000          0.0000          0.0000
   8.7200          7.2507          7.2507          7.2507          0.0000          0.0000          0.0000
   8.7400          7.2489          7.2489          7.2489          0.0000          0.0000          0.0000
   8.7600          7.2458          7.2458          7.2458          0.0000          0.0000          0.0000
   8.7800          7.2402          7.2402          7.2402          0.0000          0.0000          0.0000
   8.8000          7.2315          7.2315          7.2315          0.0000          0.0000          0.0000
   8.8200          7.2196          7.2196          7.2196          0.0000          0.0000          0.0000
   8.8400          7.2050          7.2050          7.2050          0.0000          0.0000          0.0000
   8.8600          7.1886          7.1886          7.1886          0.0000          0.0000          0.0000
   8.8800          7.1716          7.1716          7.1716          0.0000          0.0000          0.0000
   8.9000          7.1549          7.1549          7.1549          0.0000          0.0000          0.0000
   8.9200          7.1395          7.1395          7.1395          0.0000          0.0000          0.0000
   8.9400          7.1258          7.1258          7.1258          0.0000          0.0000          0.0000
   8.9600          7.1136          7.1136          7.1136          0.0000          0.0000          0.0000
   8.9800          7.1025          7.1025          7.1025          0.0000          0.0000          0.0000
   9.0000          7.0917          7.0917          7.0917          0.0000          0.0000          0.0000
   9.0200          7.0803          7.0803          7.0803          0.0000          0.0000          0.0000
   9.0400          7.0674          7.0674          7.0674          0.0000          0.0000          0.0000
   9.0600          7.0522          7.0522          7.0522          0.0000          0.0000          0.0000
   9.0800          7.0342          7.0342          7.0342          0.0000          0.0000          0.0000
   9.1000          7.0133          7.0133          7.0133          0.0000          0.0000          0.0000
   9.1200          6.9896          6.9896          6.9896          0.0000          0.0000          0.0000
   9.1400          6.9635          6.9635          6.9635          0.0000          0.0000          0.0000
   9.1600          6.9354          6.9354          6.9354          0.0000          0.0000          0.0000
   9.1800          6.9062          6.9062          6.9062          0.0000          0.0000          0.0000
   9.2000          6.8766          6.8766          6.8766          0.0000          0.0000          0.0000
   9.2200          6.8473          6.8473          6.8473          0.0000          0.0000          0.0000
   9.2400          6.8193          6.8193          6.8193          0.0000          0.0000          0.0000
   9.2600          6.7933          6.7933          6.7933          0.0000          0.0000          0.0000
   9.2800          6.7702          6.7702          6.7702          0.0000          0.0000          0.0000
   9.3000          6.7505          6.7505          6.7505          0.0000          0.0000          0.0000
   9.3200          6.7349          6.7349          6.7349          0.0000          0.0000          0.0000
   9.3400          6.7235          6.7235          6.7235          0.0000          0.0000          0.0000
   9.3600          6.7161          6.7161          6.7161          0.0000          0.0000          0.0000
   9.3800          6.7124          6.7124          6.7124          0.0000          0.0000          0.0000
   9.4000          6.7115          6.7115          6.7115          0.0000          0.0000          0.0000
   9.4200          6.7125          6.7125          6.7125          0.0000          0.0000          0.0000
   9.4400          6.7144          6.7144          6.7144          0.0000          0.0000          0.0000
   9.4600          6.7160          6.7160          6.7160          0.0000          0.0000          0.0000
   9.4800          6.7164          6.7164          6.7164          0.0000          0.0000          0.0000
   9.5000          6.7150          6.7150          6.7150          0.0000          0.0000          0.0000
   9.5200          6.7114          6.7114          6.7114          0.0000          0.0000          0.0000
   9.5400          6.7054          6.7054          6.7054          0.0000          0.0000          0.0000
   9.5600          6.6973          6.6973          6.6973          0.0000          0.0000          0.0000
   9.5800          6.6873          6.6873          6.6873          0.0000          0.0000          0.0000
   9.6000          6.6759          6.6759          6.6759          0.0000          0.0000          0.0000
   9.6200          6.6635          6.6635          6.6635          0.0000          0.0000          0.0000
   9.6400          6.6502          6.6502          6.6502          0.0000          0.0000          0.0000
   9.6600          6.6360          6.6360          6.6360          0.0000          0.0000          0.0000
   9.6800          6.6207          6.6207          6.6207          0.0000          0.0000          0.0000
   9.7000          6.6042          6.6042          6.6042          0.0000          0.0000          0.0000
   9.7200          6.5860          6.5860          6.5860          0.0000          0.0000          0.0000
   9.7400          6.5660          6.5660          6.5660          0.0000          0.0000          0.0000
   9.7600          6.5441          6.5441          6.5441          0.0000          0.0000          0.0000
   9.7800          6.5203          6.5203          6.5203          0.0000          0.0000          0.0000
   9.8000          6.4951          6.4951          6.4951          0.0000          0.0000          0.0000
   9.8200          6.4688          6.4688          6.4688          0.0000          0.0000          0.0000
   9.8400          6.4421          6.4421          6.4421          0.0000          0.0000          0.0000
   9.8600          6.4159          6.4159          6.4159          0.0000          0.0000          0.0000
   9.8800          6.3908          6.3908          6.3908          0.0000          0.0000          0.0000
   9.9000          6.3677          6.3677          6.3677          0.0000          0.0000          0.0000
   9.9200          6.3473          6.3473          6.3473          0.0000          0.0000          0.0000
   9.9400          6.3303          6.3303          6.3303          0.0000          0.0000          0.0000
   9.9600          6.3170          6.3170          6.3170          0.0000          0.0000          0.0000
   9.9800          6.3075          6.3075          6.3075          0.0000          0.0000          0.0000
  10.0000          6.3017          6.3017          6.3017          0.0000          0.0000          0.0000
  10.0200          6.2991          6.2991          6.2991          0.0000          0.0000          0.0000
  10.0400          6.2987          6.2987          6.2987          0.0000          0.0000          0.0000
  10.0600          6.2997          6.2997          6.2997          0.0000          0.0000          0.0000
  10.0800          6.3010          6.3010          6.3010          0.0000          0.0000          0.0000
  10.1000          6.3016          6.3016          6.3016          0.0000          0.0000          0.0000
  10.1200          6.3007          6.3007          6.3007          0.0000          0.0000          0.0000
  10.1400          6.2980          6.2980          6.2980          0.0000          0.0000          0.0000
  10.1600          6.2932          6.2932          6.2932          0.0000          0.0000          0.0000
  10.1800          6.2865          6.2865          6.2865          0.0000          0.0000          0.0000
  10.2000          6.2782          6.2782          6.2782          0.0000          0.0000          0.0000
  10.2200          6.2690          6.2690          6.2690          0.0000          0.0000          0.0000
  10.2400          6.2594          6.2594          6.2594          0.0000          0.0000          0.0000
  10.2600          6.2497          6.2497          6.2497          0.0000          0.0000          0.0000
  10.2800          6.2401          6.2401          6.2401          0.0000          0.0000          0.0000
  10.3000          6.2308          6.2308          6.2308          0.0000          0.0000          0.0000
  10.3200          6.2213          6.2213          6.2213          0.0000          0.0000          0.0000
  10.3400          6.2113          6.2113          6.2113          0.0000          0.0000          0.0000
  10.3600          6.2000          6.2000          6.2000          0.0000          0.0000          0.0000
  10.3800          6.1869          6.1869          6.1869          0.0000          0.0000          0.0000
  10.4000          6.1719          6.1719          6.1719          0.0000          0.0000          0.0000
  10.4200          6.1546          6.1546          6.1546          0.0000          0.0000          0.0000
  10.4400          6.1354          6.1354          6.1354          0.0000          0.0000          0.0000
  10.4600          6.1147          6.1147          6.1147          0.0000          0.0000          0.0000
  10.4800          6.0931          6.0931          6.0931          0.0000          0.0000          0.0000
  10.5000          6.0714          6.0714          6.0714          0.0000          0.0000          0.0000
  10.5200          6.0502          6.0502          6.0502          0.0000          0.0000          0.0000
  10.5400          6.0302          6.0302          6.0302          0.0000          0.0000          0.0000
  10.5600          6.0119          6.0119          6.0119          0.0000          0.0000          0.0000
  10.5800          5.9956          5.9956          5.9956          0.0000          0.0000          0.0000
  10.6000          5.9815          5.9815          5.9815          0.0000          0.0000          0.0000
  10.6200          5.9697          5.9697          5.9697          0.0000          0.0000          0.0000
  10.6400          5.9601          5.9601          5.9601          0.0000          0.0000          0.0000
  10.6600          5.9524          5.9524          5.9524          0.0000          0.0000          0.0000
  10.6800          5.9465          5.9465          5.9465          0.0000          0.0000          0.0000
  10.7000          5.9417          5.9417          5.9417          0.0000          0.0000          0.0000
  10.7200          5.9378          5.9378          5.9378          0.0000          0.0000          0.0000
  10.7400          5.9341          5.9341          5.9341          0.0000          0.0000          0.0000
  10.7600          5.9303          5.9303          5.9303          0.0000          0.0000          0.0000
  10.7800          5.9260          5.9260          5.9260          0.0000          0.0000          0.0000
  10.8000          5.9208          5.9208          5.9208          0.0000          0.0000          0.0000
  10.8200          5.9147          5.9147          5.9147          0.0000          0.0000          0.0000
  10.8400          5.9076          5.9076          5.9076          0.0000          0.0000          0.0000
  10.8600          5.8997          5.8997          5.8997          0.0000          0.0000          0.0000
  10.8800          5.8910          5.8910          5.8910          0.0000          0.0000          0.0000
  10.9000          5.8819          5.8819          5.8819          0.0000          0.0000          0.0000
  10.9200          5.8724          5.8724          5.8724          0.0000          0.0000          0.0000
  10.9400          5.8626          5.8626          5.8626          0.0000          0.0000          0.0000
  10.9600          5.8527          5.8527          5.8527          0.0000          0.0000          0.0000
  10.9800          5.8426          5.8426          5.8426          0.0000          0.0000          0.0000
  11.0000          5.8322          5.8322          5.8322          0.0000          0.0000          0.0000
  11.0200          5.8216          5.8216          5.8216          0.0000          0.0000          0.0000
  11.0400          5.8107          5.8107          5.8107          0.0000          0.0000          0.0000
  11.0600          5.7995          5.7995          5.7995          0.0000          0.0000          0.0000
  11.0800          5.7880          5.7880          5.7880          0.0000          0.0000          0.0000
  11.1000          5.7760          5.7760          5.7760          0.0000          0.0000          0.0000
  11.1200          5.7634          5.7634          5.7634          0.0000          0.0000          0.0000
  11.1400          5.7501          5.7501          5.7501          0.0000          0.0000          0.0000
  11.1600          5.7361          5.7361          5.7361          0.0000          0.0000          0.0000
  11.1800          5.7215          5.7215          5.7215          0.0000          0.0000          0.0000
  11.2000          5.7064          5.7064          5.7064          0.0000          0.0000          0.0000
  11.2200          5.6911          5.6911          5.6911          0.0000          0.0000          0.0000
  11.2400          5.6760          5.6760          5.6760          0.0000          0.0000          0.0000
  11.2600          5.6614          5.6614          5.6614          0.0000          0.0000          0.0000
  11.2800          5.6476          5.6476          5.6476          0.0000          0.0000          0.0000
  11.3000          5.6347          5.6347          5.6347          0.0000          0.0000          0.0000
  11.3200          5.6228          5.6228          5.6228          0.0000          0.0000          0.0000
  11.3400          5.6117          5.6117          5.6117          0.0000          0.0000          0.0000
  11.3600          5.6013          5.6013          5.6013          0.0000          0.0000          0.0000
  11.3800          5.5914          5.5914          5.5914          0.0000          0.0000          0.0000
  11.4000          5.5819          5.5819          5.5819          0.0000          0.0000          0.0000
  11.4200          5.5726          5.5726          5.5726          0.0000          0.0000          0.0000
  11.4400          5.5636          5.5636          5.5636          0.0000          0.0000          0.0000
  11.4600          5.5549          5.5549          5.5549          0.0000          0.0000          0.0000
  11.4800          5.5465          5.5465          5.5465          0.0000          0.0000          0.0000
  11.5000          5.5385          5.5385          5.5385          0.0000          0.0000          0.0000
  11.5200          5.5310          5.5310          5.5310          0.0000          0.0000          0.0000
  11.5400          5.5239          5.5239          5.5239          0.0000          0.0000          0.0000
  11.5600          5.5174          5.5174          5.5174          0.0000          0.0000          0.0000
  11.5800          5.5114          5.5114          5.5114          0.0000          0.0000          0.0000
  11.6000          5.5058          5.5058          5.5058          0.0000          0.0000          0.0000
  11.6200          5.5006          5.5006          5.5006          0.0000          0.0000          0.0000
  11.6400          5.4957          5.4957          5.4957          0.0000          0.0000          0.0000
  11.6600          5.4910          5.4910          5.4910          0.0000          0.0000          0.0000
  11.6800          5.4866          5.4866          5.4866          0.0000          0.0000          0.0000
  11.7000          5.4823          5.4823          5.4823          0.0000          0.0000          0.0000
  11.7200          5.4784          5.4784          5.4784          0.0000          0.0000          0.0000
  11.7400          5.4747          5.4747          5.4747          0.0000          0.0000          0.0000
  11.7600          5.4713          5.4713          5.4713          0.0000          0.0000          0.0000
  11.7800          5.4681          5.4681          5.4681          0.0000          0.0000          0.0000
  11.8000          5.4647          5.4647          5.4647          0.0000          0.0000          0.0000
  11.8200          5.4609          5.4609          5.4609          0.0000          0.0000          0.0000
  11.8400          5.4563          5.4563          5.4563          0.0000          0.0000          0.0000
  11.8600          5.4503          5.4503          5.4503          0.0000          0.0000          0.0000
  11.8800          5.4428          5.4428          5.4428          0.0000          0.0000          0.0000
  11.9000          5.4333          5.4333          5.4333          0.0000          0.0000          0.0000
  11.9200          5.4221          5.4221          5.4221          0.0000          0.0000          0.0000
  11.9400          5.4091          5.4091          5.4091          0.0000          0.0000          0.0000
  11.9600          5.3947          5.3947          5.3947          0.0000          0.0000          0.0000
  11.9800          5.3795          5.3795          5.3795          0.0000          0.0000          0.0000
  12.0000          5.3638          5.3638          5.3638          0.0000          0.0000          0.0000
  12.0200          5.3481          5.3481          5.3481          0.0000          0.0000          0.0000
  12.0400          5.3330          5.3330          5.3330          0.0000          0.0000          0.0000
  12.0600          5.3187          5.3187          5.3187          0.0000          0.0000          0.0000
  12.0800          5.3055          5.3055          5.3055          0.0000          0.0000          0.0000
  12.1000          5.2935          5.2935          5.2935          0.0000          0.0000          0.0000
  12.1200          5.2827          5.2827          5.2827          0.0000          0.0000          0.0000
  12.1400          5.2730          5.2730          5.2730          0.0000          0.0000          0.0000
  12.1600          5.2644          5.2644          5.2644          0.0000          0.0000          0.0000
  12.1800          5.2565          5.2565          5.2565          0.0000          0.0000          0.0000
  12.2000          5.2493          5.2493          5.2493          0.0000          0.0000          0.0000
  12.2200          5.2425          5.2425          5.2425          0.0000          0.0000          0.0000
  12.2400          5.2358          5.2358          5.2358          0.0000          0.0000          0.0000
  12.2600          5.2291          5.2291          5.2291          0.0000          0.0000          0.0000
  12.2800          5.2221          5.2221          5.2221          0.0000          0.0000          0.0000
  12.3000          5.2148          5.2148          5.2148          0.0000          0.0000          0.0000
  12.3200          5.2072          5.2072          5.2072          0.0000          0.0000          0.0000
  12.3400          5.1993          5.1993          5.1993          0.0000          0.0000          0.0000
  12.3600          5.1913          5.1913          5.1913          0.0000          0.0000          0.0000
  12.3800          5.1835          5.1835          5.1835          0.0000          0.0000          0.0000
  12.4000          5.1761          5.1761          5.1761          0.0000          0.0000          0.0000
  12.4200          5.1692          5.1692          5.1692          0.0000          0.0000          0.0000
  12.4400          5.1629          5.1629          5.1629          0.0000          0.0000          0.0000
  12.4600          5.1571          5.1571          5.1571          0.0000          0.0000          0.0000
  12.4800          5.1516          5.1516          5.1516          0.0000          0.0000          0.0000
  12.5000          5.1461          5.1461          5.1461          0.0000          0.0000          0.0000
  12.5200          5.1402          5.1402          5.1402          0.0000          0.0000          0.0000
  12.5400          5.1336          5.1336          5.1336          0.0000          0.0000          0.0000
  12.5600          5.1262          5.1262          5.1262          0.0000          0.0000          0.0000
  12.5800          5.1176          5.1176          5.1176          0.0000          0.0000          0.0000
  12.6000          5.1078          5.1078          5.1078          0.0000          0.0000          0.0000
  12.6200          5.0970          5.0970          5.0970          0.0000          0.0000          0.0000
  12.6400          5.0851          5.0851          5.0851          0.0000          0.0000          0.0000
  12.6600          5.0726          5.0726          5.0726          0.0000          0.0000          0.0000
  12.6800          5.0596          5.0596          5.0596          0.0000          0.0000          0.0000
  12.7000          5.0464          5.0464          5.0464          0.0000          0.0000          0.0000
  12.7200          5.0334          5.0334          5.0334          0.0000          0.0000          0.0000
  12.7400          5.0207          5.0207          5.0207          0.0000          0.0000          0.0000
  12.7600          5.0086          5.0086          5.0086          0.0000          0.0000          0.0000
  12.7800          4.9973          4.9973          4.9973          0.0000          0.0000          0.0000
  12.8000          4.9869          4.9869          4.9869          0.0000          0.0000          0.0000
  12.8200          4.9775          4.9775          4.9775          0.0000          0.0000          0.0000
  12.8400          4.9692          4.9692          4.9692          0.0000          0.0000          0.0000
  12.8600          4.9618          4.9618          4.9618          0.0000          0.0000          0.0000
  12.8800          4.9553          4.9553          4.9553          0.0000          0.0000          0.0000
  12.9000          4.9493          4.9493          4.9493          0.0000          0.0000          0.0000
  12.9200          4.9436          4.9436          4.9436          0.0000          0.0000          0.0000
  12.9400          4.9379          4.9379          4.9379          0.0000          0.0000          0.0000
  12.9600          4.9320          4.9320          4.9320          0.0000          0.0000          0.0000
  12.9800          4.9258          4.9258          4.9258          0.0000          0.0000          0.0000
  13.0000          4.9191          4.9191          4.9191          0.0000          0.0000          0.0000
  13.0200          4.9119          4.9119          4.9119          0.0000          0.0000          0.0000
  13.0400          4.9045          4.9045          4.9045          0.0000          0.0000          0.0000
  13.0600          4.8968          4.8968          4.8968          0.0000          0.0000          0.0000
  13.0800          4.8890          4.8890          4.8890          0.0000          0.0000          0.0000
  13.1000          4.8812          4.8812          4.8812          0.0000          0.0000          0.0000
  13.1200          4.8735          4.8735          4.8735          0.0000          0.0000          0.0000
  13.1400          4.8658          4.8658          4.8658          0.0000          0.0000          0.0000
  13.1600          4.8582          4.8582          4.8582          0.0000          0.0000          0.0000
  13.1800          4.8507          4.8507          4.8507          0.0000          0.0000          0.0000
  13.2000          4.8435          4.8435          4.8435          0.0000          0.0000          0.0000
  13.2200          4.8366          4.8366          4.8366          0.0000          0.0000          0.0000
  13.2400          4.8301          4.8301          4.8301          0.0000          0.0000          0.0000
  13.2600          4.8240          4.8240          4.8240          0.0000          0.0000          0.0000
  13.2800          4.8186          4.8186          4.8186          0.0000          0.0000          0.0000
  13.3000          4.8136          4.8136          4.8136          0.0000          0.0000          0.0000
  13.3200          4.8091          4.8091          4.8091          0.0000          0.0000          0.0000
  13.3400          4.8051          4.8051          4.8051          0.0000          0.0000          0.0000
  13.3600          4.8013          4.8013          4.8013          0.0000          0.0000          0.0000
  13.3800          4.7976          4.7976          4.7976          0.0000          0.0000          0.0000
  13.4000          4.7938          4.7938          4.7938          0.0000          0.0000          0.0000
  13.4200          4.7897          4.7897          4.7897          0.0000          0.0000          0.0000
  13.4400          4.7850          4.7850          4.7850          0.0000          0.0000          0.0000
  13.4600          4.7797          4.7797          4.7797          0.0000          0.0000          0.0000
  13.4800          4.7735          4.7735          4.7735          0.0000          0.0000          0.0000
  13.5000          4.7664          4.7664          4.7664          0.0000          0.0000          0.0000
  13.5200          4.7584          4.7584          4.7584          0.0000          0.0000          0.0000
  13.5400          4.7495          4.7495          4.7495          0.0000          0.0000          0.0000
  13.5600          4.7399          4.7399          4.7399          0.0000          0.0000          0.0000
  13.5800          4.7297          4.7297          4.7297          0.0000          0.0000          0.0000
  13.6000          4.7191          4.7191          4.7191          0.0000          0.0000          0.0000
  13.6200          4.7082          4.7082          4.7082          0.0000          0.0000          0.0000
  13.6400          4.6971          4.6971          4.6971          0.0000          0.0000          0.0000
  13.6600          4.6859          4.6859          4.6859          0.0000          0.0000          0.0000
  13.6800          4.6748          4.6748          4.6748          0.0000          0.0000          0.0000
  13.7000          4.6639          4.6639          4.6639          0.0000          0.0000          0.0000
  13.7200          4.6534          4.6534          4.6534          0.0000          0.0000          0.0000
  13.7400          4.6433          4.6433          4.6433          0.0000          0.0000          0.0000
  13.7600          4.6338          4.6338          4.6338          0.0000          0.0000          0.0000
  13.7800          4.6251          4.6251          4.6251          0.0000          0.0000          0.0000
  13.8000          4.6172          4.6172          4.6172          0.0000          0.0000          0.0000
  13.8200          4.6103          4.6103          4.6103          0.0000          0.0000          0.0000
  13.8400          4.6042          4.6042          4.6042          0.0000          0.0000          0.0000
  13.8600          4.5991          4.5991          4.5991          0.0000          0.0000          0.0000
  13.8800          4.5947          4.5947          4.5947          0.0000          0.0000          0.0000
  13.9000          4.5910          4.5910          4.5910          0.0000          0.0000          0.0000
  13.9200          4.5877          4.5877          4.5877          0.0000          0.0000          0.0000
  13.9400          4.5846          4.5846          4.5846          0.0000          0.0000          0.0000
  13.9600          4.5815          4.5815          4.5815          0.0000          0.0000          0.0000
  13.9800          4.5781          4.5781          4.5781          0.0000          0.0000          0.0000
  14.0000          4.5744          4.5744          4.5744          0.0000          0.0000          0.0000
  14.0200          4.5702          4.5702          4.5702          0.0000          0.0000          0.0000
  14.0400          4.5655          4.5655          4.5655          0.0000          0.0000          0.0000
  14.0600          4.5603          4.5603          4.5603          0.0000          0.0000          0.0000
  14.0800          4.5547          4.5547          4.5547          0.0000          0.0000          0.0000
  14.1000          4.5488          4.5488          4.5488          0.0000          0.0000          0.0000
  14.1200          4.5427          4.5427          4.5427          0.0000          0.0000          0.0000
  14.1400          4.5364          4.5364          4.5364          0.0000          0.0000          0.0000
  14.1600          4.5300          4.5300          4.5300          0.0000          0.0000          0.0000
  14.1800          4.5234          4.5234          4.5234          0.0000          0.0000          0.0000
  14.2000          4.5167          4.5167          4.5167          0.0000          0.0000          0.0000
  14.2200          4.5099          4.5099          4.5099          0.0000          0.0000          0.0000
  14.2400          4.5027          4.5027          4.5027          0.0000          0.0000          0.0000
  14.2600          4.4953          4.4953          4.4953          0.0000          0.0000          0.0000
  14.2800          4.4877          4.4877          4.4877          0.0000          0.0000          0.0000
  14.3000          4.4799          4.4799          4.4799          0.0000          0.0000          0.0000
  14.3200          4.4718          4.4718          4.4718          0.0000          0.0000          0.0000
  14.3400          4.4636          4.4636          4.4636          0.0000          0.0000          0.0000
  14.3600          4.4552          4.4552          4.4552          0.0000          0.0000          0.0000
  14.3800          4.4469          4.4469          4.4469          0.0000          0.0000          0.0000
  14.4000          4.4385          4.4385          4.4385          0.0000          0.0000          0.0000
  14.4200          4.4302          4.4302          4.4302          0.0000          0.0000          0.0000
  14.4400          4.4221          4.4221          4.4221          0.0000          0.0000          0.0000
  14.4600          4.4144          4.4144          4.4144          0.0000          0.0000          0.0000
  14.4800          4.4071          4.4071          4.4071          0.0000          0.0000          0.0000
  14.5000          4.4004          4.4004          4.4004          0.0000          0.0000          0.0000
  14.5200          4.3944          4.3944          4.3944          0.0000          0.0000          0.0000
  14.5400          4.3892          4.3892          4.3892          0.0000          0.0000          0.0000
  14.5600          4.3846          4.3846          4.3846          0.0000          0.0000          0.0000
  14.5800          4.3806          4.3806          4.3806          0.0000          0.0000          0.0000
  14.6000          4.3772          4.3772          4.3772          0.0000          0.0000          0.0000
  14.6200          4.3740          4.3740          4.3740          0.0000          0.0000          0.0000
  14.6400          4.3710          4.3710          4.3710          0.0000          0.0000          0.0000
  14.6600          4.3681          4.3681          4.3681          0.0000          0.0000          0.0000
  14.6800          4.3652          4.3652          4.3652          0.0000          0.0000          0.0000
  14.7000          4.3622          4.3622          4.3622          0.0000          0.0000          0.0000
  14.7200          4.3592          4.3592          4.3592          0.0000          0.0000          0.0000
  14.7400          4.3561          4.3561          4.3561          0.0000          0.0000          0.0000
  14.7600          4.3531          4.3531          4.3531          0.0000          0.0000          0.0000
  14.7800          4.3500          4.3500          4.3500          0.0000          0.0000          0.0000
  14.8000          4.3470          4.3470          4.3470          0.0000          0.0000          0.0000
  14.8200          4.3439          4.3439          4.3439          0.0000          0.0000          0.0000
  14.8400          4.3406          4.3406          4.3406          0.0000          0.0000          0.0000
  14.8600          4.3372          4.3372          4.3372          0.0000          0.0000          0.0000
  14.8800          4.3335          4.3335          4.3335          0.0000          0.0000          0.0000
  14.9000          4.3295          4.3295          4.3295          0.0000          0.0000          0.0000
  14.9200          4.3253          4.3253          4.3253          0.0000          0.0000          0.0000
  14.9400          4.3207          4.3207          4.3207          0.0000          0.0000          0.0000
  14.9600          4.3158          4.3158          4.3158          0.0000          0.0000          0.0000
  14.9800          4.3106          4.3106          4.3106          0.0000          0.0000          0.0000
  15.0000          4.3050          4.3050          4.3050          0.0000          0.0000          0.0000
  15.0200          4.2990          4.2990          4.2990          0.0000          0.0000          0.0000
  15.0400          4.2925          4.2925          4.2925          0.0000          0.0000          0.0000
  15.0600          4.2855          4.2855          4.2855          0.0000          0.0000          0.0000
  15.0800          4.2781          4.2781          4.2781          0.0000          0.0000          0.0000
  15.1000          4.2704          4.2704          4.2704          0.0000          0.0000          0.0000
  15.1200          4.2626          4.2626          4.2626          0.0000          0.0000          0.0000
  15.1400          4.2548          4.2548          4.2548          0.0000          0.0000          0.0000
  15.1600          4.2471          4.2471          4.2471          0.0000          0.0000          0.0000
  15.1800          4.2396          4.2396          4.2396          0.0000          0.0000          0.0000
  15.2000          4.2323          4.2323          4.2323          0.0000          0.0000          0.0000
  15.2200          4.2252          4.2252          4.2252          0.0000          0.0000          0.0000
  15.2400          4.2182          4.2182          4.2182          0.0000          0.0000          0.0000
  15.2600          4.2114          4.2114          4.2114          0.0000          0.0000          0.0000
  15.2800          4.2047          4.2047          4.2047          0.0000          0.0000          0.0000
  15.3000          4.1982          4.1982          4.1982          0.0000          0.0000          0.0000
  15.3200          4.1918          4.1918          4.1918          0.0000          0.0000          0.0000
  15.3400          4.1857          4.1857          4.1857          0.0000          0.0000          0.0000
  15.3600          4.1799          4.1799          4.1799          0.0000          0.0000          0.0000
  15.3800          4.1743          4.1743          4.1743          0.0000          0.0000          0.0000
  15.4000          4.1690          4.1690          4.1690          0.0000          0.0000          0.0000
  15.4200          4.1638          4.1638          4.1638          0.0000          0.0000          0.0000
  15.4400          4.1588          4.1588          4.1588          0.0000          0.0000          0.0000
  15.4600          4.1539          4.1539          4.1539          0.0000          0.0000          0.0000
  15.4800          4.1491          4.1491          4.1491          0.0000          0.0000          0.0000
  15.5000          4.1443          4.1443          4.1443          0.0000          0.0000          0.0000
  15.5200          4.1396          4.1396          4.1396          0.0000          0.0000          0.0000
  15.5400          4.1349          4.1349          4.1349          0.0000          0.0000          0.0000
  15.5600          4.1302          4.1302          4.1302          0.0000          0.0000          0.0000
  15.5800          4.1256          4.1256          4.1256          0.0000          0.0000          0.0000
  15.6000          4.1213          4.1213          4.1213          0.0000          0.0000          0.0000
  15.6200          4.1171          4.1171          4.1171          0.0000          0.0000          0.0000
  15.6400          4.1133          4.1133          4.1133          0.0000          0.0000          0.0000
  15.6600          4.1100          4.1100          4.1100          0.0000          0.0000          0.0000
  15.6800          4.1072          4.1072          4.1072          0.0000          0.0000          0.0000
  15.7000          4.1048          4.1048          4.1048          0.0000          0.0000          0.0000
  15.7200          4.1030          4.1030          4.1030          0.0000          0.0000          0.0000
  15.7400          4.1014          4.1014          4.1014          0.0000          0.0000          0.0000
  15.7600          4.1000          4.1000          4.1000          0.0000          0.0000          0.0000
  15.7800          4.0984          4.0984          4.0984          0.0000          0.0000          0.0000
  15.8000          4.0965          4.0965          4.0965          0.0000          0.0000          0.0000
  15.8200          4.0940          4.0940          4.0940          0.0000          0.0000          0.0000
  15.8400          4.0907          4.0907          4.0907          0.0000          0.0000          0.0000
  15.8600          4.0865          4.0865          4.0865          0.0000          0.0000          0.0000
  15.8800          4.0813          4.0813          4.0813          0.0000          0.0000          0.0000
  15.9000          4.0753          4.0753          4.0753          0.0000          0.0000          0.0000
  15.9200          4.0684          4.0684          4.0684          0.0000          0.0000          0.0000
  15.9400          4.0608          4.0608          4.0608          0.0000          0.0000          0.0000
  15.9600          4.0527          4.0527          4.0527          0.0000          0.0000          0.0000
  15.9800          4.0443          4.0443          4.0443          0.0000          0.0000          0.0000
  16.0000          4.0357          4.0357          4.0357          0.0000          0.0000          0.0000
  16.0200          4.0273          4.0273          4.0273          0.0000          0.0000          0.0000
  16.0400          4.0192          4.0192          4.0192          0.0000          0.0000          0.0000
  16.0600          4.0116          4.0116          4.0116          0.0000          0.0000          0.0000
  16.0800          4.0044          4.0044          4.0044          0.0000          0.0000          0.0000
  16.1000          3.9980          3.9980          3.9980          0.0000          0.0000          0.0000
  16.1200          3.9921          3.9921          3.9921          0.0000          0.0000          0.0000
  16.1400          3.9870          3.9870          3.9870          0.0000          0.0000          0.0000
  16.1600          3.9824          3.9824          3.9824          0.0000          0.0000          0.0000
  16.1800          3.9783          3.9783          3.9783          0.0000          0.0000          0.0000
  16.2000          3.9744          3.9744          3.9744          0.0000          0.0000          0.0000
  16.2200          3.9706          3.9706          3.9706          0.0000          0.0000          0.0000
  16.2400          3.9666          3.9666          3.9666          0.0000          0.0000          0.0000
  16.2600          3.9624          3.9624          3.9624          0.0000          0.0000          0.0000
  16.2800          3.9577          3.9577          3.9577          0.0000          0.0000          0.0000
  16.3000          3.9526          3.9526          3.9526          0.0000          0.0000          0.0000
  16.3200          3.9470          3.9470          3.9470          0.0000          0.0000          0.0000
  16.3400          3.9411          3.9411          3.9411          0.0000          0.0000          0.0000
  16.3600          3.9348          3.9348          3.9348          0.0000          0.0000          0.0000
  16.3800          3.9282          3.9282          3.9282          0.0000          0.0000          0.0000
  16.4000          3.9216          3.9216          3.9216          0.0000          0.0000          0.0000
  16.4200          3.9150          3.9150          3.9150          0.0000          0.0000          0.0000
  16.4400          3.9084          3.9084          3.9084          0.0000          0.0000          0.0000
  16.4600          3.9019          3.9019          3.9019          0.0000          0.0000          0.0000
  16.4800          3.8957          3.8957          3.8957          0.0000          0.0000          0.0000
  16.5000          3.8896          3.8896          3.8896          0.0000          0.0000          0.0000
  16.5200          3.8836          3.8836          3.8836          0.0000          0.0000          0.0000
  16.5400          3.8778          3.8778          3.8778          0.0000          0.0000          0.0000
  16.5600          3.8720          3.8720          3.8720          0.0000          0.0000          0.0000
  16.5800          3.8661          3.8661          3.8661          0.0000          0.0000          0.0000
  16.6000          3.8600          3.8600          3.8600          0.0000          0.0000          0.0000
  16.6200          3.8538          3.8538          3.8538          0.0000          0.0000          0.0000
  16.6400          3.8473          3.8473          3.8473          0.0000          0.0000          0.0000
  16.6600          3.8406          3.8406          3.8406          0.0000          0.0000          0.0000
  16.6800          3.8339          3.8339          3.8339          0.0000          0.0000          0.0000
  16.7000          3.8272          3.8272          3.8272          0.0000          0.0000          0.0000
  16.7200          3.8207          3.8207          3.8207          0.0000          0.0000          0.0000
  16.7400          3.8146          3.8146          3.8146          0.0000          0.0000          0.0000
  16.7600          3.8088          3.8088          3.8088          0.0000          0.0000          0.0000
  16.7800          3.8036          3.8036          3.8036          0.0000          0.0000          0.0000
  16.8000          3.7988          3.7988          3.7988          0.0000          0.0000          0.0000
  16.8200          3.7944          3.7944          3.7944          0.0000          0.0000          0.0000
  16.8400          3.7904          3.7904          3.7904          0.0000          0.0000          0.0000
  16.8600          3.7865          3.7865          3.7865          0.0000          0.0000          0.0000
  16.8800          3.7826          3.7826          3.7826          0.0000          0.0000          0.0000
  16.9000          3.7787          3.7787          3.7787          0.0000          0.0000          0.0000
  16.9200          3.7747          3.7747          3.7747          0.0000          0.0000          0.0000
  16.9400          3.7706          3.7706          3.7706          0.0000          0.0000          0.0000
  16.9600          3.7664          3.7664          3.7664          0.0000          0.0000          0.0000
  16.9800          3.7622          3.7622          3.7622          0.0000          0.0000          0.0000
  17.0000          3.7581          3.7581          3.7581          0.0000          0.0000          0.0000
  17.0200          3.7540          3.7540          3.7540          0.0000          0.0000          0.0000
  17.0400          3.7499          3.7499          3.7499          0.0000          0.0000          0.0000
  17.0600          3.7458          3.7458          3.7458          0.0000          0.0000          0.0000
  17.0800          3.7416          3.7416          3.7416          0.0000          0.0000          0.0000
  17.1000          3.7372          3.7372          3.7372          0.0000          0.0000          0.0000
  17.1200          3.7328          3.7328          3.7328          0.0000          0.0000          0.0000
  17.1400          3.7282          3.7282          3.7282          0.0000          0.0000          0.0000
  17.1600          3.7236          3.7236          3.7236          0.0000          0.0000          0.0000
  17.1800          3.7191          3.7191          3.7191          0.0000          0.0000          0.0000
  17.2000          3.7148          3.7148          3.7148          0.0000          0.0000          0.0000
  17.2200          3.7107          3.7107          3.7107          0.0000          0.0000          0.0000
  17.2400          3.7070          3.7070          3.7070          0.0000          0.0000          0.0000
  17.2600          3.7036          3.7036          3.7036          0.0000          0.0000          0.0000
  17.2800          3.7004          3.7004          3.7004          0.0000          0.0000          0.0000
  17.3000          3.6973          3.6973          3.6973          0.0000          0.0000          0.0000
  17.3200          3.6943          3.6943          3.6943          0.0000          0.0000          0.0000
  17.3400          3.6911          3.6911          3.6911          0.0000          0.0000          0.0000
  17.3600          3.6877          3.6877          3.6877          0.0000          0.0000          0.0000
  17.3800          3.6839          3.6839          3.6839          0.0000          0.0000          0.0000
  17.4000          3.6797          3.6797          3.6797          0.0000          0.0000          0.0000
  17.4200          3.6752          3.6752          3.6752          0.0000          0.0000          0.0000
  17.4400          3.6703          3.6703          3.6703          0.0000          0.0000          0.0000
  17.4600          3.6652          3.6652          3.6652          0.0000          0.0000          0.0000
  17.4800          3.6598          3.6598          3.6598          0.0000          0.0000          0.0000
  17.5000          3.6543          3.6543          3.6543          0.0000          0.0000          0.0000
  17.5200          3.6487          3.6487          3.6487          0.0000          0.0000          0.0000
  17.5400          3.6431          3.6431          3.6431          0.0000          0.0000          0.0000
  17.5600          3.6374          3.6374          3.6374          0.0000          0.0000          0.0000
  17.5800          3.6318          3.6318          3.6318          0.0000          0.0000          0.0000
  17.6000          3.6260          3.6260          3.6260          0.0000          0.0000          0.0000
  17.6200          3.6201          3.6201          3.6201          0.0000          0.0000          0.0000
  17.6400          3.6139          3.6139          3.6139          0.0000          0.0000          0.0000
  17.6600          3.6074          3.6074          3.6074          0.0000          0.0000          0.0000
  17.6800          3.6005          3.6005          3.6005          0.0000          0.0000          0.0000
  17.7000          3.5932          3.5932          3.5932          0.0000          0.0000          0.0000
  17.7200          3.5855          3.5855          3.5855          0.0000          0.0000          0.0000
  17.7400          3.5775          3.5775          3.5775          0.0000          0.0000          0.0000
  17.7600          3.5693          3.5693          3.5693          0.0000          0.0000          0.0000
  17.7800          3.5609          3.5609          3.5609          0.0000          0.0000          0.0000
  17.8000          3.5524          3.5524          3.5524          0.0000          0.0000          0.0000
  17.8200          3.5440          3.5440          3.5440          0.0000          0.0000          0.0000
  17.8400          3.5357          3.5357          3.5357          0.0000          0.0000          0.0000
  17.8600          3.5276          3.5276          3.5276          0.0000          0.0000          0.0000
  17.8800          3.5199          3.5199          3.5199          0.0000          0.0000          0.0000
  17.9000          3.5126          3.5126          3.5126          0.0000          0.0000          0.0000
  17.9200          3.5057          3.5057          3.5057          0.0000          0.0000          0.0000
  17.9400          3.4993          3.4993          3.4993          0.0000          0.0000          0.0000
  17.9600          3.4936          3.4936          3.4936          0.0000          0.0000          0.0000
  17.9800          3.4884          3.4884          3.4884          0.0000          0.0000          0.0000
  18.0000          3.4840          3.4840          3.4840          0.0000          0.0000          0.0000
  18.0200          3.4803          3.4803          3.4803          0.0000          0.0000          0.0000
  18.0400          3.4773          3.4773          3.4773          0.0000          0.0000          0.0000
  18.0600          3.4749          3.4749          3.4749          0.0000          0.0000          0.0000
  18.0800          3.4730          3.4730          3.4730          0.0000          0.0000          0.0000
  18.1000          3.4715          3.4715          3.4715          0.0000          0.0000          0.0000
  18.1200          3.4701          3.4701          3.4701          0.0000          0.0000          0.0000
  18.1400          3.4687          3.4687          3.4687          0.0000          0.0000          0.0000
  18.1600          3.4669          3.4669          3.4669          0.0000          0.0000          0.0000
  18.1800          3.4646          3.4646          3.4646          0.0000          0.0000          0.0000
  18.2000          3.4618          3.4618          3.4618          0.0000          0.0000          0.0000
  18.2200          3.4583          3.4583          3.4583          0.0000          0.0000          0.0000
  18.2400          3.4542          3.4542          3.4542          0.0000          0.0000          0.0000
  18.2600          3.4494          3.4494          3.4494          0.0000          0.0000          0.0000
  18.2800          3.4441          3.4441          3.4441          0.0000          0.0000          0.0000
  18.3000          3.4384          3.4384          3.4384          0.0000          0.0000          0.0000
  18.3200          3.4324          3.4324          3.4324          0.0000          0.0000          0.0000
  18.3400          3.4261          3.4261          3.4261          0.0000          0.0000          0.0000
  18.3600          3.4196          3.4196          3.4196          0.0000          0.0000          0.0000
  18.3800          3.4131          3.4131          3.4131          0.0000          0.0000          0.0000
  18.4000          3.4064          3.4064          3.4064          0.0000          0.0000          0.0000
  18.4200          3.3996          3.3996          3.3996          0.0000          0.0000          0.0000
  18.4400          3.3928          3.3928          3.3928          0.0000          0.0000          0.0000
  18.4600          3.3859          3.3859          3.3859          0.0000          0.0000          0.0000
  18.4800          3.3789          3.3789          3.3789          0.0000          0.0000          0.0000
  18.5000          3.3717          3.3717          3.3717          0.0000          0.0000          0.0000
  18.5200          3.3645          3.3645          3.3645          0.0000          0.0000          0.0000
  18.5400          3.3571          3.3571          3.3571          0.0000          0.0000          0.0000
  18.5600          3.3497          3.3497          3.3497          0.0000          0.0000          0.0000
  18.5800          3.3422          3.3422          3.3422          0.0000          0.0000          0.0000
  18.6000          3.3347          3.3347          3.3347          0.0000          0.0000          0.0000
  18.6200          3.3272          3.3272          3.3272          0.0000          0.0000          0.0000
  18.6400          3.3199          3.3199          3.3199          0.0000          0.0000          0.0000
  18.6600          3.3128          3.3128          3.3128          0.0000          0.0000          0.0000
  18.6800          3.3061          3.3061          3.3061          0.0000          0.0000          0.0000
  18.7000          3.2999          3.2999          3.2999          0.0000          0.0000          0.0000
  18.7200          3.2943          3.2943          3.2943          0.0000          0.0000          0.0000
  18.7400          3.2894          3.2894          3.2894          0.0000          0.0000          0.0000
  18.7600          3.2853          3.2853          3.2853          0.0000          0.0000          0.0000
  18.7800          3.2819          3.2819          3.2819          0.0000          0.0000          0.0000
  18.8000          3.2791          3.2791          3.2791          0.0000          0.0000          0.0000
  18.8200          3.2768          3.2768          3.2768          0.0000          0.0000          0.0000
  18.8400          3.2748          3.2748          3.2748          0.0000          0.0000          0.0000
  18.8600          3.2729          3.2729          3.2729          0.0000          0.0000          0.0000
  18.8800          3.2709          3.2709          3.2709          0.0000          0.0000          0.0000
  18.9000          3.2685          3.2685          3.2685          0.0000          0.0000          0.0000
  18.9200          3.2655          3.2655          3.2655          0.0000          0.0000          0.0000
  18.9400          3.2620          3.2620          3.2620          0.0000          0.0000          0.0000
  18.9600          3.2578          3.2578          3.2578          0.0000          0.0000          0.0000
  18.9800          3.2530          3.2530          3.2530          0.0000          0.0000          0.0000
  19.0000          3.2476          3.2476          3.2476          0.0000          0.0000          0.0000
  19.0200          3.2417          3.2417          3.2417          0.0000          0.0000          0.0000
  19.0400          3.2355          3.2355          3.2355          0.0000          0.0000          0.0000
  19.0600          3.2289          3.2289          3.2289          0.0000          0.0000          0.0000
  19.0800          3.2221          3.2221          3.2221          0.0000          0.0000          0.0000
  19.1000          3.2152          3.2152          3.2152          0.0000          0.0000          0.0000
  19.1200          3.2082          3.2082          3.2082          0.0000          0.0000          0.0000
  19.1400          3.2014          3.2014          3.2014          0.0000          0.0000          0.0000
  19.1600          3.1946          3.1946          3.1946          0.0000          0.0000          0.0000
  19.1800          3.1881          3.1881          3.1881          0.0000          0.0000          0.0000
  19.2000          3.1819          3.1819          3.1819          0.0000          0.0000          0.0000
  19.2200          3.1759          3.1759          3.1759          0.0000          0.0000          0.0000
  19.2400          3.1703          3.1703          3.1703          0.0000          0.0000          0.0000
  19.2600          3.1650          3.1650          3.1650          0.0000          0.0000          0.0000
  19.2800          3.1598          3.1598          3.1598          0.0000          0.0000          0.0000
  19.3000          3.1549          3.1549          3.1549          0.0000          0.0000          0.0000
  19.3200          3.1500          3.1500          3.1500          0.0000          0.0000          0.0000
  19.3400          3.1452          3.1452          3.1452          0.0000          0.0000          0.0000
  19.3600          3.1403          3.1403          3.1403          0.0000          0.0000          0.0000
  19.3800          3.1355          3.1355          3.1355          0.0000          0.0000          0.0000
  19.4000          3.1307          3.1307          3.1307          0.0000          0.0000          0.0000
  19.4200          3.1261          3.1261          3.1261          0.0000          0.0000          0.0000
  19.4400          3.1217          3.1217          3.1217          0.0000          0.0000          0.0000
  19.4600          3.1177          3.1177          3.1177          0.0000          0.0000          0.0000
  19.4800          3.1143          3.1143          3.1143          0.0000          0.0000          0.0000
  19.5000          3.1114          3.1114          3.1114          0.0000          0.0000          0.0000
  19.5200          3.1093          3.1093          3.1093          0.0000          0.0000          0.0000
  19.5400          3.1080          3.1080          3.1080          0.0000          0.0000          0.0000
  19.5600          3.1073          3.1073          3.1073          0.0000          0.0000          0.0000
  19.5800          3.1073          3.1073          3.1073          0.0000          0.0000          0.0000
  19.6000          3.1078          3.1078          3.1078          0.0000          0.0000          0.0000
  19.6200          3.1087          3.1087          3.1087          0.0000          0.0000          0.0000
  19.6400          3.1098          3.1098          3.1098          0.0000          0.0000          0.0000
  19.6600          3.1109          3.1109          3.1109          0.0000          0.0000          0.0000
  19.6800          3.1119          3.1119          3.1119          0.0000          0.0000          0.0000
  19.7000          3.1126          3.1126          3.1126          0.0000          0.0000          0.0000
  19.7200          3.1131          3.1131          3.1131          0.0000          0.0000          0.0000
  19.7400          3.1131          3.1131          3.1131          0.0000          0.0000          0.0000
  19.7600          3.1128          3.1128          3.1128          0.0000          0.0000          0.0000
  19.7800          3.1121          3.1121          3.1121          0.0000          0.0000          0.0000
  19.8000          3.1110          3.1110          3.1110          0.0000          0.0000          0.0000
  19.8200          3.1097          3.1097          3.1097          0.0000          0.0000          0.0000
  19.8400          3.1083          3.1083          3.1083          0.0000          0.0000          0.0000
  19.8600          3.1069          3.1069          3.1069          0.0000          0.0000          0.0000
  19.8800          3.1055          3.1055          3.1055          0.0000          0.0000          0.0000
  19.9000          3.1044          3.1044          3.1044          0.0000          0.0000          0.0000
  19.9200          3.1035          3.1035          3.1035          0.0000          0.0000          0.0000
  19.9400          3.1027          3.1027          3.1027          0.0000          0.0000          0.0000
  19.9600          3.1017          3.1017          3.1017          0.0000          0.0000          0.0000
  19.9800          3.1002          3.1002          3.1002          0.0000          0.0000          0.0000
  20.0000          3.0974          3.0974          3.0974          0.0000          0.0000          0.0000
