### real part of conductivity (in units of 10^15 sec^-1)
   0.0000          0.0000          0.0000          0.0000          0.0000          0.0000          0.0000
   0.0200          4.5551          4.5551          4.5551          0.0000          0.0000          0.0000
   0.0400          4.5538          4.5538          4.5538          0.0000          0.0000          0.0000
   0.0600          4.5516          4.5516          4.5516          0.0000          0.0000          0.0000
   0.0800          4.5484          4.5484          4.5484          0.0000          0.0000          0.0000
   0.1000          4.5444          4.5444          4.5444          0.0000          0.0000          0.0000
   0.1200          4.5395          4.5395          4.5395          0.0000          0.0000          0.0000
   0.1400          4.5337          4.5337          4.5337          0.0000          0.0000          0.0000
   0.1600          4.5271          4.5271          4.5271          0.0000          0.0000          0.0000
   0.1800          4.5196          4.5196          4.5196          0.0000          0.0000          0.0000
   0.2000          4.5112          4.5112          4.5112          0.0000          0.0000          0.0000
   0.2200          4.5021          4.5021          4.5021          0.0000          0.0000          0.0000
   0.2400          4.4920          4.4920          4.4920          0.0000          0.0000          0.0000
   0.2600          4.4812          4.4812          4.4812          0.0000          0.0000          0.0000
   0.2800          4.4695          4.4695          4.4695          0.0000          0.0000          0.0000
   0.3000          4.4571          4.4571          4.4571          0.0000          0.0000          0.0000
   0.3200          4.4439          4.4439          4.4439          0.0000          0.0000          0.0000
   0.3400          4.4299          4.4299          4.4299          0.0000          0.0000          0.0000
   0.3600          4.4152          4.4152          4.4152          0.0000          0.0000          0.0000
   0.3800          4.3997          4.3997          4.3997          0.0000          0.0000          0.0000
   0.4000          4.3836          4.3836          4.3836          0.0000          0.0000          0.0000
   0.4200          4.3667          4.3667          4.3667          0.0000          0.0000          0.0000
   0.4400          4.3492          4.3492          4.3492          0.0000          0.0000          0.0000
   0.4600          4.3310          4.3310          4.3310          0.0000          0.0000          0.0000
   0.4800          4.3122          4.3122          4.3122          0.0000          0.0000          0.0000
   0.5000          4.2928          4.2928          4.2928          0.0000          0.0000          0.0000
   0.5200          4.2728          4.2728          4.2728          0.0000          0.0000          0.0000
   0.5400          4.2522          4.2522          4.2522          0.0000          0.0000          0.0000
   0.5600          4.2311          4.2311          4.2311          0.0000          0.0000          0.0000
   0.5800          4.2094          4.2094          4.2094          0.0000          0.0000          0.0000
   0.6000          4.1873          4.1873          4.1873          0.0000          0.0000          0.0000
   0.6200          4.1646          4.1646          4.1646          0.0000          0.0000          0.0000
   0.6400          4.1415          4.1415          4.1415          0.0000          0.0000          0.0000
   0.6600          4.1180          4.1180          4.1180          0.0000          0.0000          0.0000
   0.6800          4.0941          4.0941          4.0941          0.0000          0.0000          0.0000
   0.7000          4.0697          4.0697          4.0697          0.0000          0.0000          0.0000
   0.7200          4.0451          4.0451          4.0451          0.0000          0.0000          0.0000
   0.7400          4.0200          4.0200          4.0200          0.0000          0.0000          0.0000
   0.7600          3.9947          3.9947          3.9947          0.0000          0.0000          0.0000
   0.7800          3.9691          3.9691          3.9691          0.0000          0.0000          0.0000
   0.8000          3.9432          3.9432          3.9432          0.0000          0.0000          0.0000
   0.8200          3.9170          3.9170          3.9170          0.0000          0.0000          0.0000
   0.8400          3.8907          3.8907          3.8907          0.0000          0.0000          0.0000
   0.8600          3.8642          3.8642          3.8642          0.0000          0.0000          0.0000
   0.8800          3.8375          3.8375          3.8375          0.0000          0.0000          0.0000
   0.9000          3.8106          3.8106          3.8106          0.0000          0.0000          0.0000
   0.9200          3.7837          3.7837          3.7837          0.0000          0.0000          0.0000
   0.9400          3.7567          3.7567          3.7567          0.0000          0.0000          0.0000
   0.9600          3.7296          3.7296          3.7296          0.0000          0.0000          0.0000
   0.9800          3.7025          3.7025          3.7025          0.0000          0.0000          0.0000
   1.0000          3.6755          3.6755          3.6755          0.0000          0.0000          0.0000
   1.0200          3.6485          3.6485          3.6485          0.0000          0.0000          0.0000
   1.0400          3.6215          3.6215          3.6215          0.0000          0.0000          0.0000
   1.0600          3.5947          3.5947          3.5947          0.0000          0.0000          0.0000
   1.0800          3.5681          3.5681          3.5681          0.0000          0.0000          0.0000
   1.1000          3.5417          3.5417          3.5417          0.0000          0.0000          0.0000
   1.1200          3.5156          3.5156          3.5156          0.0000          0.0000          0.0000
   1.1400          3.4898          3.4898          3.4898          0.0000          0.0000          0.0000
   1.1600          3.4645          3.4645          3.4645          0.0000          0.0000          0.0000
   1.1800          3.4398          3.4398          3.4398          0.0000          0.0000          0.0000
   1.2000          3.4157          3.4157          3.4157          0.0000          0.0000          0.0000
   1.2200          3.3926          3.3926          3.3926          0.0000          0.0000          0.0000
   1.2400          3.3704          3.3704          3.3704          0.0000          0.0000          0.0000
   1.2600          3.3496          3.3496          3.3496          0.0000          0.0000          0.0000
   1.2800          3.3304          3.3304          3.3304          0.0000          0.0000          0.0000
   1.3000          3.3131          3.3131          3.3131          0.0000          0.0000          0.0000
   1.3200          3.2980          3.2980          3.2980          0.0000          0.0000          0.0000
   1.3400          3.2854          3.2854          3.2854          0.0000          0.0000          0.0000
   1.3600          3.2755          3.2755          3.2755          0.0000          0.0000          0.0000
   1.3800          3.2684          3.2684          3.2684          0.0000          0.0000          0.0000
   1.4000          3.2637          3.2637          3.2637          0.0000          0.0000          0.0000
   1.4200          3.2610          3.2610          3.2610          0.0000          0.0000          0.0000
   1.4400          3.2595          3.2595          3.2595          0.0000          0.0000          0.0000
   1.4600          3.2579          3.2579          3.2579          0.0000          0.0000          0.0000
   1.4800          3.2551          3.2551          3.2551          0.0000          0.0000          0.0000
   1.5000          3.2498          3.2498          3.2498          0.0000          0.0000          0.0000
   1.5200          3.2413          3.2413          3.2413          0.0000          0.0000          0.0000
   1.5400          3.2292          3.2292          3.2292          0.0000          0.0000          0.0000
   1.5600          3.2135          3.2135          3.2135          0.0000          0.0000          0.0000
   1.5800          3.1951          3.1951          3.1951          0.0000          0.0000          0.0000
   1.6000          3.1754          3.1754          3.1754          0.0000          0.0000          0.0000
   1.6200          3.1559          3.1559          3.1559          0.0000          0.0000          0.0000
   1.6400          3.1384          3.1384          3.1384          0.0000          0.0000          0.0000
   1.6600          3.1244          3.1244          3.1244          0.0000          0.0000          0.0000
   1.6800          3.1152          3.1152          3.1152          0.0000          0.0000          0.0000
   1.7000          3.1115          3.1115          3.1115          0.0000          0.0000          0.0000
   1.7200          3.1135          3.1135          3.1135          0.0000          0.0000          0.0000
   1.7400          3.1209          3.1209          3.1209          0.0000          0.0000          0.0000
   1.7600          3.1333          3.1333          3.1333          0.0000          0.0000          0.0000
   1.7800          3.1500          3.1500          3.1500          0.0000          0.0000          0.0000
   1.8000          3.1705          3.1705          3.1705          0.0000          0.0000          0.0000
   1.8200          3.1943          3.1943          3.1943          0.0000          0.0000          0.0000
   1.8400          3.2212          3.2212          3.2212          0.0000          0.0000          0.0000
   1.8600          3.2509          3.2509          3.2509          0.0000          0.0000          0.0000
   1.8800          3.2833          3.2833          3.2833          0.0000          0.0000          0.0000
   1.9000          3.3180          3.3180          3.3180          0.0000          0.0000          0.0000
   1.9200          3.3549          3.3549          3.3549          0.0000          0.0000          0.0000
   1.9400          3.3934          3.3934          3.3934          0.0000          0.0000          0.0000
   1.9600          3.4332          3.4332          3.4332          0.0000          0.0000          0.0000
   1.9800          3.4741          3.4741          3.4741          0.0000          0.0000          0.0000
   2.0000          3.5160          3.5160          3.5160          0.0000          0.0000          0.0000
   2.0200          3.5589          3.5589          3.5589          0.0000          0.0000          0.0000
   2.0400          3.6031          3.6031          3.6031          0.0000          0.0000          0.0000
   2.0600          3.6492          3.6492          3.6492          0.0000          0.0000          0.0000
   2.0800          3.6978          3.6978          3.6978          0.0000          0.0000          0.0000
   2.1000          3.7497          3.7497          3.7497          0.0000          0.0000          0.0000
   2.1200          3.8057          3.8057          3.8057          0.0000          0.0000          0.0000
   2.1400          3.8662          3.8662          3.8662          0.0000          0.0000          0.0000
   2.1600          3.9310          3.9310          3.9310          0.0000          0.0000          0.0000
   2.1800          3.9990          3.9990          3.9990          0.0000          0.0000          0.0000
   2.2000          4.0681          4.0681          4.0681          0.0000          0.0000          0.0000
   2.2200          4.1350          4.1350          4.1350          0.0000          0.0000          0.0000
   2.2400          4.1962          4.1962          4.1962          0.0000          0.0000          0.0000
   2.2600          4.2481          4.2481          4.2481          0.0000          0.0000          0.0000
   2.2800          4.2877          4.2877          4.2877          0.0000          0.0000          0.0000
   2.3000          4.3131          4.3131          4.3131          0.0000          0.0000          0.0000
   2.3200          4.3238          4.3238          4.3238          0.0000          0.0000          0.0000
   2.3400          4.3205          4.3205          4.3205          0.0000          0.0000          0.0000
   2.3600          4.3049          4.3049          4.3049          0.0000          0.0000          0.0000
   2.3800          4.2793          4.2793          4.2793          0.0000          0.0000          0.0000
   2.4000          4.2466          4.2466          4.2466          0.0000          0.0000          0.0000
   2.4200          4.2097          4.2097          4.2097          0.0000          0.0000          0.0000
   2.4400          4.1719          4.1719          4.1719          0.0000          0.0000          0.0000
   2.4600          4.1366          4.1366          4.1366          0.0000          0.0000          0.0000
   2.4800          4.1069          4.1069          4.1069          0.0000          0.0000          0.0000
   2.5000          4.0856          4.0856          4.0856          0.0000          0.0000          0.0000
   2.5200          4.0748          4.0748          4.0748          0.0000          0.0000          0.0000
   2.5400          4.0759          4.0759          4.0759          0.0000          0.0000          0.0000
   2.5600          4.0891          4.0891          4.0891          0.0000          0.0000          0.0000
   2.5800          4.1140          4.1140          4.1140          0.0000          0.0000          0.0000
   2.6000          4.1492          4.1492          4.1492          0.0000          0.0000          0.0000
   2.6200          4.1929          4.1929          4.1929          0.0000          0.0000          0.0000
   2.6400          4.2428          4.2428          4.2428          0.0000          0.0000          0.0000
   2.6600          4.2965          4.2965          4.2965          0.0000          0.0000          0.0000
   2.6800          4.3514          4.3514          4.3514          0.0000          0.0000          0.0000
   2.7000          4.4044          4.4044          4.4044          0.0000          0.0000          0.0000
   2.7200          4.4528          4.4528          4.4528          0.0000          0.0000          0.0000
   2.7400          4.4937          4.4937          4.4937          0.0000          0.0000          0.0000
   2.7600          4.5245          4.5245          4.5245          0.0000          0.0000          0.0000
   2.7800          4.5432          4.5432          4.5432          0.0000          0.0000          0.0000
   2.8000          4.5485          4.5485          4.5485          0.0000          0.0000          0.0000
   2.8200          4.5404          4.5404          4.5404          0.0000          0.0000          0.0000
   2.8400          4.5199          4.5199          4.5199          0.0000          0.0000          0.0000
   2.8600          4.4890          4.4890          4.4890          0.0000          0.0000          0.0000
   2.8800          4.4509          4.4509          4.4509          0.0000          0.0000          0.0000
   2.9000          4.4092          4.4092          4.4092          0.0000          0.0000          0.0000
   2.9200          4.3679          4.3679          4.3679          0.0000          0.0000          0.0000
   2.9400          4.3306          4.3306          4.3306          0.0000          0.0000          0.0000
   2.9600          4.3003          4.3003          4.3003          0.0000          0.0000          0.0000
   2.9800          4.2791          4.2791          4.2791          0.0000          0.0000          0.0000
   3.0000          4.2680          4.2680          4.2680          0.0000          0.0000          0.0000
   3.0200          4.2667          4.2667          4.2667          0.0000          0.0000          0.0000
   3.0400          4.2739          4.2739          4.2739          0.0000          0.0000          0.0000
   3.0600          4.2875          4.2875          4.2875          0.0000          0.0000          0.0000
   3.0800          4.3051          4.3051          4.3051          0.0000          0.0000          0.0000
   3.1000          4.3241          4.3241          4.3241          0.0000          0.0000          0.0000
   3.1200          4.3424          4.3424          4.3424          0.0000          0.0000          0.0000
   3.1400          4.3584          4.3584          4.3584          0.0000          0.0000          0.0000
   3.1600          4.3712          4.3712          4.3712          0.0000          0.0000          0.0000
   3.1800          4.3805          4.3805          4.3805          0.0000          0.0000          0.0000
   3.2000          4.3868          4.3868          4.3868          0.0000          0.0000          0.0000
   3.2200          4.3911          4.3911          4.3911          0.0000          0.0000          0.0000
   3.2400          4.3949          4.3949          4.3949          0.0000          0.0000          0.0000
   3.2600          4.4000          4.4000          4.4000          0.0000          0.0000          0.0000
   3.2800          4.4085          4.4085          4.4085          0.0000          0.0000          0.0000
   3.3000          4.4218          4.4218          4.4218          0.0000          0.0000          0.0000
   3.3200          4.4405          4.4405          4.4405          0.0000          0.0000          0.0000
   3.3400          4.4641          4.4641          4.4641          0.0000          0.0000          0.0000
   3.3600          4.4908          4.4908          4.4908          0.0000          0.0000          0.0000
   3.3800          4.5179          4.5179          4.5179          0.0000          0.0000          0.0000
   3.4000          4.5423          4.5423          4.5423          0.0000          0.0000          0.0000
   3.4200          4.5613          4.5613          4.5613          0.0000          0.0000          0.0000
   3.4400          4.5732          4.5732          4.5732          0.0000          0.0000          0.0000
   3.4600          4.5778          4.5778          4.5778          0.0000          0.0000          0.0000
   3.4800          4.5766          4.5766          4.5766          0.0000          0.0000          0.0000
   3.5000          4.5718          4.5718          4.5718          0.0000          0.0000          0.0000
   3.5200          4.5663          4.5663          4.5663          0.0000          0.0000          0.0000
   3.5400          4.5622          4.5622          4.5622          0.0000          0.0000          0.0000
   3.5600          4.5608          4.5608          4.5608          0.0000          0.0000          0.0000
   3.5800          4.5617          4.5617          4.5617          0.0000          0.0000          0.0000
   3.6000          4.5633          4.5633          4.5633          0.0000          0.0000          0.0000
   3.6200          4.5631          4.5631          4.5631          0.0000          0.0000          0.0000
   3.6400          4.5581          4.5581          4.5581          0.0000          0.0000          0.0000
   3.6600          4.5455          4.5455          4.5455          0.0000          0.0000          0.0000
   3.6800          4.5238          4.5238          4.5238          0.0000          0.0000          0.0000
   3.7000          4.4927          4.4927          4.4927          0.0000          0.0000          0.0000
   3.7200          4.4532          4.4532          4.4532          0.0000          0.0000          0.0000
   3.7400          4.4077          4.4077          4.4077          0.0000          0.0000          0.0000
   3.7600          4.3595          4.3595          4.3595          0.0000          0.0000          0.0000
   3.7800          4.3118          4.3118          4.3118          0.0000          0.0000          0.0000
   3.8000          4.2673          4.2673          4.2673          0.0000          0.0000          0.0000
   3.8200          4.2277          4.2277          4.2277          0.0000          0.0000          0.0000
   3.8400          4.1941          4.1941          4.1941          0.0000          0.0000          0.0000
   3.8600          4.1667          4.1667          4.1667          0.0000          0.0000          0.0000
   3.8800          4.1458          4.1458          4.1458          0.0000          0.0000          0.0000
   3.9000          4.1316          4.1316          4.1316          0.0000          0.0000          0.0000
   3.9200          4.1248          4.1248          4.1248          0.0000          0.0000          0.0000
   3.9400          4.1262          4.1262          4.1262          0.0000          0.0000          0.0000
   3.9600          4.1364          4.1364          4.1364          0.0000          0.0000          0.0000
   3.9800          4.1546          4.1546          4.1546          0.0000          0.0000          0.0000
   4.0000          4.1790          4.1790          4.1790          0.0000          0.0000          0.0000
   4.0200          4.2060          4.2060          4.2060          0.0000          0.0000          0.0000
   4.0400          4.2311          4.2311          4.2311          0.0000          0.0000          0.0000
   4.0600          4.2493          4.2493          4.2493          0.0000          0.0000          0.0000
   4.0800          4.2566          4.2566          4.2566          0.0000          0.0000          0.0000
   4.1000          4.2503          4.2503          4.2503          0.0000          0.0000          0.0000
   4.1200          4.2298          4.2298          4.2298          0.0000          0.0000          0.0000
   4.1400          4.1964          4.1964          4.1964          0.0000          0.0000          0.0000
   4.1600          4.1531          4.1531          4.1531          0.0000          0.0000          0.0000
   4.1800          4.1036          4.1036          4.1036          0.0000          0.0000          0.0000
   4.2000          4.0516          4.0516          4.0516          0.0000          0.0000          0.0000
   4.2200          4.0004          4.0004          4.0004          0.0000          0.0000          0.0000
   4.2400          3.9526          3.9526          3.9526          0.0000          0.0000          0.0000
   4.2600          3.9098          3.9098          3.9098          0.0000          0.0000          0.0000
   4.2800          3.8729          3.8729          3.8729          0.0000          0.0000          0.0000
   4.3000          3.8424          3.8424          3.8424          0.0000          0.0000          0.0000
   4.3200          3.8182          3.8182          3.8182          0.0000          0.0000          0.0000
   4.3400          3.8003          3.8003          3.8003          0.0000          0.0000          0.0000
   4.3600          3.7881          3.7881          3.7881          0.0000          0.0000          0.0000
   4.3800          3.7811          3.7811          3.7811          0.0000          0.0000          0.0000
   4.4000          3.7781          3.7781          3.7781          0.0000          0.0000          0.0000
   4.4200          3.7778          3.7778          3.7778          0.0000          0.0000          0.0000
   4.4400          3.7788          3.7788          3.7788          0.0000          0.0000          0.0000
   4.4600          3.7795          3.7795          3.7795          0.0000          0.0000          0.0000
   4.4800          3.7783          3.7783          3.7783          0.0000          0.0000          0.0000
   4.5000          3.7740          3.7740          3.7740          0.0000          0.0000          0.0000
   4.5200          3.7659          3.7659          3.7659          0.0000          0.0000          0.0000
   4.5400          3.7539          3.7539          3.7539          0.0000          0.0000          0.0000
   4.5600          3.7383          3.7383          3.7383          0.0000          0.0000          0.0000
   4.5800          3.7201          3.7201          3.7201          0.0000          0.0000          0.0000
   4.6000          3.7003          3.7003          3.7003          0.0000          0.0000          0.0000
   4.6200          3.6804          3.6804          3.6804          0.0000          0.0000          0.0000
   4.6400          3.6615          3.6615          3.6615          0.0000          0.0000          0.0000
   4.6600          3.6448          3.6448          3.6448          0.0000          0.0000          0.0000
   4.6800          3.6313          3.6313          3.6313          0.0000          0.0000          0.0000
   4.7000          3.6216          3.6216          3.6216          0.0000          0.0000          0.0000
   4.7200          3.6164          3.6164          3.6164          0.0000          0.0000          0.0000
   4.7400          3.6162          3.6162          3.6162          0.0000          0.0000          0.0000
   4.7600          3.6210          3.6210          3.6210          0.0000          0.0000          0.0000
   4.7800          3.6305          3.6305          3.6305          0.0000          0.0000          0.0000
   4.8000          3.6438          3.6438          3.6438          0.0000          0.0000          0.0000
   4.8200          3.6594          3.6594          3.6594          0.0000          0.0000          0.0000
   4.8400          3.6758          3.6758          3.6758          0.0000          0.0000          0.0000
   4.8600          3.6911          3.6911          3.6911          0.0000          0.0000          0.0000
   4.8800          3.7039          3.7039          3.7039          0.0000          0.0000          0.0000
   4.9000          3.7135          3.7135          3.7135          0.0000          0.0000          0.0000
   4.9200          3.7200          3.7200          3.7200          0.0000          0.0000          0.0000
   4.9400          3.7239          3.7239          3.7239          0.0000          0.0000          0.0000
   4.9600          3.7263          3.7263          3.7263          0.0000          0.0000          0.0000
   4.9800          3.7285          3.7285          3.7285          0.0000          0.0000          0.0000
   5.0000          3.7313          3.7313          3.7313          0.0000          0.0000          0.0000
   5.0200          3.7351          3.7351          3.7351          0.0000          0.0000          0.0000
   5.0400          3.7395          3.7395          3.7395          0.0000          0.0000          0.0000
   5.0600          3.7438          3.7438          3.7438          0.0000          0.0000          0.0000
   5.0800          3.7473          3.7473          3.7473          0.0000          0.0000          0.0000
   5.1000          3.7493          3.7493          3.7493          0.0000          0.0000          0.0000
   5.1200          3.7497          3.7497          3.7497          0.0000          0.0000          0.0000
   5.1400          3.7489          3.7489          3.7489          0.0000          0.0000          0.0000
   5.1600          3.7477          3.7477          3.7477          0.0000          0.0000          0.0000
   5.1800          3.7471          3.7471          3.7471          0.0000          0.0000          0.0000
   5.2000          3.7478          3.7478          3.7478          0.0000          0.0000          0.0000
   5.2200          3.7502          3.7502          3.7502          0.0000          0.0000          0.0000
   5.2400          3.7542          3.7542          3.7542          0.0000          0.0000          0.0000
   5.2600          3.7591          3.7591          3.7591          0.0000          0.0000          0.0000
   5.2800          3.7640          3.7640          3.7640          0.0000          0.0000          0.0000
   5.3000          3.7683          3.7683          3.7683          0.0000          0.0000          0.0000
   5.3200          3.7711          3.7711          3.7711          0.0000          0.0000          0.0000
   5.3400          3.7722          3.7722          3.7722          0.0000          0.0000          0.0000
   5.3600          3.7720          3.7720          3.7720          0.0000          0.0000          0.0000
   5.3800          3.7708          3.7708          3.7708          0.0000          0.0000          0.0000
   5.4000          3.7694          3.7694          3.7694          0.0000          0.0000          0.0000
   5.4200          3.7682          3.7682          3.7682          0.0000          0.0000          0.0000
   5.4400          3.7674          3.7674          3.7674          0.0000          0.0000          0.0000
   5.4600          3.7669          3.7669          3.7669          0.0000          0.0000          0.0000
   5.4800          3.7662          3.7662          3.7662          0.0000          0.0000          0.0000
   5.5000          3.7644          3.7644          3.7644          0.0000          0.0000          0.0000
   5.5200          3.7607          3.7607          3.7607          0.0000          0.0000          0.0000
   5.5400          3.7544          3.7544          3.7544          0.0000          0.0000          0.0000
   5.5600          3.7451          3.7451          3.7451          0.0000          0.0000          0.0000
   5.5800          3.7326          3.7326          3.7326          0.0000          0.0000          0.0000
   5.6000          3.7174          3.7174          3.7174          0.0000          0.0000          0.0000
   5.6200          3.7000          3.7000          3.7000          0.0000          0.0000          0.0000
   5.6400          3.6816          3.6816          3.6816          0.0000          0.0000          0.0000
   5.6600          3.6632          3.6632          3.6632          0.0000          0.0000          0.0000
   5.6800          3.6460          3.6460          3.6460          0.0000          0.0000          0.0000
   5.7000          3.6311          3.6311          3.6311          0.0000          0.0000          0.0000
   5.7200          3.6197          3.6197          3.6197          0.0000          0.0000          0.0000
   5.7400          3.6125          3.6125          3.6125          0.0000          0.0000          0.0000
   5.7600          3.6101          3.6101          3.6101          0.0000          0.0000          0.0000
   5.7800          3.6125          3.6125          3.6125          0.0000          0.0000          0.0000
   5.8000          3.6195          3.6195          3.6195          0.0000          0.0000          0.0000
   5.8200          3.6302          3.6302          3.6302          0.0000          0.0000          0.0000
   5.8400          3.6438          3.6438          3.6438          0.0000          0.0000          0.0000
   5.8600          3.6593          3.6593          3.6593          0.0000          0.0000          0.0000
   5.8800          3.6758          3.6758          3.6758          0.0000          0.0000          0.0000
   5.9000          3.6932          3.6932          3.6932          0.0000          0.0000          0.0000
   5.9200          3.7113          3.7113          3.7113          0.0000          0.0000          0.0000
   5.9400          3.7304          3.7304          3.7304          0.0000          0.0000          0.0000
   5.9600          3.7509          3.7509          3.7509          0.0000          0.0000          0.0000
   5.9800          3.7726          3.7726          3.7726          0.0000          0.0000          0.0000
   6.0000          3.7953          3.7953          3.7953          0.0000          0.0000          0.0000
   6.0200          3.8182          3.8182          3.8182          0.0000          0.0000          0.0000
   6.0400          3.8402          3.8402          3.8402          0.0000          0.0000          0.0000
   6.0600          3.8603          3.8603          3.8603          0.0000          0.0000          0.0000
   6.0800          3.8779          3.8779          3.8779          0.0000          0.0000          0.0000
   6.1000          3.8930          3.8930          3.8930          0.0000          0.0000          0.0000
   6.1200          3.9060          3.9060          3.9060          0.0000          0.0000          0.0000
   6.1400          3.9185          3.9185          3.9185          0.0000          0.0000          0.0000
   6.1600          3.9321          3.9321          3.9321          0.0000          0.0000          0.0000
   6.1800          3.9487          3.9487          3.9487          0.0000          0.0000          0.0000
   6.2000          3.9696          3.9696          3.9696          0.0000          0.0000          0.0000
   6.2200          3.9958          3.9958          3.9958          0.0000          0.0000          0.0000
   6.2400          4.0275          4.0275          4.0275          0.0000          0.0000          0.0000
   6.2600          4.0642          4.0642          4.0642          0.0000          0.0000          0.0000
   6.2800          4.1054          4.1054          4.1054          0.0000          0.0000          0.0000
   6.3000          4.1504          4.1504          4.1504          0.0000          0.0000          0.0000
   6.3200          4.1991          4.1991          4.1991          0.0000          0.0000          0.0000
   6.3400          4.2520          4.2520          4.2520          0.0000          0.0000          0.0000
   6.3600          4.3097          4.3097          4.3097          0.0000          0.0000          0.0000
   6.3800          4.3732          4.3732          4.3732          0.0000          0.0000          0.0000
   6.4000          4.4433          4.4433          4.4433          0.0000          0.0000          0.0000
   6.4200          4.5197          4.5197          4.5197          0.0000          0.0000          0.0000
   6.4400          4.6014          4.6014          4.6014          0.0000          0.0000          0.0000
   6.4600          4.6861          4.6861          4.6861          0.0000          0.0000          0.0000
   6.4800          4.7703          4.7703          4.7703          0.0000          0.0000          0.0000
   6.5000          4.8500          4.8500          4.8500          0.0000          0.0000          0.0000
   6.5200          4.9209          4.9209          4.9209          0.0000          0.0000          0.0000
   6.5400          4.9791          4.9791          4.9791          0.0000          0.0000          0.0000
   6.5600          5.0219          5.0219          5.0219          0.0000          0.0000          0.0000
   6.5800          5.0481          5.0481          5.0481          0.0000          0.0000          0.0000
   6.6000          5.0580          5.0580          5.0580          0.0000          0.0000          0.0000
   6.6200          5.0535          5.0535          5.0535          0.0000          0.0000          0.0000
   6.6400          5.0377          5.0377          5.0377          0.0000          0.0000          0.0000
   6.6600          5.0139          5.0139          5.0139          0.0000          0.0000          0.0000
   6.6800          4.9854          4.9854          4.9854          0.0000          0.0000          0.0000
   6.7000          4.9550          4.9550          4.9550          0.0000          0.0000          0.0000
   6.7200          4.9248          4.9248          4.9248          0.0000          0.0000          0.0000
   6.7400          4.8965          4.8965          4.8965          0.0000          0.0000          0.0000
   6.7600          4.8713          4.8713          4.8713          0.0000          0.0000          0.0000
   6.7800          4.8505          4.8505          4.8505          0.0000          0.0000          0.0000
   6.8000          4.8352          4.8352          4.8352          0.0000          0.0000          0.0000
   6.8200          4.8262          4.8262          4.8262          0.0000          0.0000          0.0000
   6.8400          4.8238          4.8238          4.8238          0.0000          0.0000          0.0000
   6.8600          4.8275          4.8275          4.8275          0.0000          0.0000          0.0000
   6.8800          4.8363          4.8363          4.8363          0.0000          0.0000          0.0000
   6.9000          4.8483          4.8483          4.8483          0.0000          0.0000          0.0000
   6.9200          4.8613          4.8613          4.8613          0.0000          0.0000          0.0000
   6.9400          4.8733          4.8733          4.8733          0.0000          0.0000          0.0000
   6.9600          4.8826          4.8826          4.8826          0.0000          0.0000          0.0000
   6.9800          4.8881          4.8881          4.8881          0.0000          0.0000          0.0000
   7.0000          4.8890          4.8890          4.8890          0.0000          0.0000          0.0000
   7.0200          4.8856          4.8856          4.8856          0.0000          0.0000          0.0000
   7.0400          4.8781          4.8781          4.8781          0.0000          0.0000          0.0000
   7.0600          4.8674          4.8674          4.8674          0.0000          0.0000          0.0000
   7.0800          4.8545          4.8545          4.8545          0.0000          0.0000          0.0000
   7.1000          4.8404          4.8404          4.8404          0.0000          0.0000          0.0000
   7.1200          4.8263          4.8263          4.8263          0.0000          0.0000          0.0000
   7.1400          4.8128          4.8128          4.8128          0.0000          0.0000          0.0000
   7.1600          4.8006          4.8006          4.8006          0.0000          0.0000          0.0000
   7.1800          4.7898          4.7898          4.7898          0.0000          0.0000          0.0000
   7.2000          4.7807          4.7807          4.7807          0.0000          0.0000          0.0000
   7.2200          4.7732          4.7732          4.7732          0.0000          0.0000          0.0000
   7.2400          4.7676          4.7676          4.7676          0.0000          0.0000          0.0000
   7.2600          4.7644          4.7644          4.7644          0.0000          0.0000          0.0000
   7.2800          4.7643          4.7643          4.7643          0.0000          0.0000          0.0000
   7.3000          4.7681          4.7681          4.7681          0.0000          0.0000          0.0000
   7.3200          4.7763          4.7763          4.7763          0.0000          0.0000          0.0000
   7.3400          4.7890          4.7890          4.7890          0.0000          0.0000          0.0000
   7.3600          4.8059          4.8059          4.8059          0.0000          0.0000          0.0000
   7.3800          4.8261          4.8261          4.8261          0.0000          0.0000          0.0000
   7.4000          4.8487          4.8487          4.8487          0.0000          0.0000          0.0000
   7.4200          4.8728          4.8728          4.8728          0.0000          0.0000          0.0000
   7.4400          4.8974          4.8974          4.8974          0.0000          0.0000          0.0000
   7.4600          4.9218          4.9218          4.9218          0.0000          0.0000          0.0000
   7.4800          4.9453          4.9453          4.9453          0.0000          0.0000          0.0000
   7.5000          4.9675          4.9675          4.9675          0.0000          0.0000          0.0000
   7.5200          4.9875          4.9875          4.9875          0.0000          0.0000          0.0000
   7.5400          5.0047          5.0047          5.0047          0.0000          0.0000          0.0000
   7.5600          5.0182          5.0182          5.0182          0.0000          0.0000          0.0000
   7.5800          5.0271          5.0271          5.0271          0.0000          0.0000          0.0000
   7.6000          5.0309          5.0309          5.0309          0.0000          0.0000          0.0000
   7.6200          5.0290          5.0290          5.0290          0.0000          0.0000          0.0000
   7.6400          5.0213          5.0213          5.0213          0.0000          0.0000          0.0000
   7.6600          5.0079          5.0079          5.0079          0.0000          0.0000          0.0000
   7.6800          4.9894          4.9894          4.9894          0.0000          0.0000          0.0000
   7.7000          4.9666          4.9666          4.9666          0.0000          0.0000          0.0000
   7.7200          4.9407          4.9407          4.9407          0.0000          0.0000          0.0000
   7.7400          4.9129          4.9129          4.9129          0.0000          0.0000          0.0000
   7.7600          4.8846          4.8846          4.8846          0.0000          0.0000          0.0000
   7.7800          4.8573          4.8573          4.8573          0.0000          0.0000          0.0000
   7.8000          4.8321          4.8321          4.8321          0.0000          0.0000          0.0000
   7.8200          4.8099          4.8099          4.8099          0.0000          0.0000          0.0000
   7.8400          4.7910          4.7910          4.7910          0.0000          0.0000          0.0000
   7.8600          4.7751          4.7751          4.7751          0.0000          0.0000          0.0000
   7.8800          4.7617          4.7617          4.7617          0.0000          0.0000          0.0000
   7.9000          4.7494          4.7494          4.7494          0.0000          0.0000          0.0000
   7.9200          4.7372          4.7372          4.7372          0.0000          0.0000          0.0000
   7.9400          4.7239          4.7239          4.7239          0.0000          0.0000          0.0000
   7.9600          4.7090          4.7090          4.7090          0.0000          0.0000          0.0000
   7.9800          4.6925          4.6925          4.6925          0.0000          0.0000          0.0000
   8.0000          4.6749          4.6749          4.6749          0.0000          0.0000          0.0000
   8.0200          4.6573          4.6573          4.6573          0.0000          0.0000          0.0000
   8.0400          4.6411          4.6411          4.6411          0.0000          0.0000          0.0000
   8.0600          4.6273          4.6273          4.6273          0.0000          0.0000          0.0000
   8.0800          4.6168          4.6168          4.6168          0.0000          0.0000          0.0000
   8.1000          4.6100          4.6100          4.6100          0.0000          0.0000          0.0000
   8.1200          4.6064          4.6064          4.6064          0.0000          0.0000          0.0000
   8.1400          4.6051          4.6051          4.6051          0.0000          0.0000          0.0000
   8.1600          4.6047          4.6047          4.6047          0.0000          0.0000          0.0000
   8.1800          4.6035          4.6035          4.6035          0.0000          0.0000          0.0000
   8.2000          4.5999          4.5999          4.5999          0.0000          0.0000          0.0000
   8.2200          4.5926          4.5926          4.5926          0.0000          0.0000          0.0000
   8.2400          4.5809          4.5809          4.5809          0.0000          0.0000          0.0000
   8.2600          4.5645          4.5645          4.5645          0.0000          0.0000          0.0000
   8.2800          4.5440          4.5440          4.5440          0.0000          0.0000          0.0000
   8.3000          4.5203          4.5203          4.5203          0.0000          0.0000          0.0000
   8.3200          4.4947          4.4947          4.4947          0.0000          0.0000          0.0000
   8.3400          4.4686          4.4686          4.4686          0.0000          0.0000          0.0000
   8.3600          4.4434          4.4434          4.4434          0.0000          0.0000          0.0000
   8.3800          4.4206          4.4206          4.4206          0.0000          0.0000          0.0000
   8.4000          4.4016          4.4016          4.4016          0.0000          0.0000          0.0000
   8.4200          4.3876          4.3876          4.3876          0.0000          0.0000          0.0000
   8.4400          4.3795          4.3795          4.3795          0.0000          0.0000          0.0000
   8.4600          4.3783          4.3783          4.3783          0.0000          0.0000          0.0000
   8.4800          4.3842          4.3842          4.3842          0.0000          0.0000          0.0000
   8.5000          4.3971          4.3971          4.3971          0.0000          0.0000          0.0000
   8.5200          4.4160          4.4160          4.4160          0.0000          0.0000          0.0000
   8.5400          4.4397          4.4397          4.4397          0.0000          0.0000          0.0000
   8.5600          4.4663          4.4663          4.4663          0.0000          0.0000          0.0000
   8.5800          4.4941          4.4941          4.4941          0.0000          0.0000          0.0000
   8.6000          4.5211          4.5211          4.5211          0.0000          0.0000          0.0000
   8.6200          4.5456          4.5456          4.5456          0.0000          0.0000          0.0000
   8.6400          4.5660          4.5660          4.5660          0.0000          0.0000          0.0000
   8.6600          4.5809          4.5809          4.5809          0.0000          0.0000          0.0000
   8.6800          4.5890          4.5890          4.5890          0.0000          0.0000          0.0000
   8.7000          4.5895          4.5895          4.5895          0.0000          0.0000          0.0000
   8.7200          4.5817          4.5817          4.5817          0.0000          0.0000          0.0000
   8.7400          4.5656          4.5656          4.5656          0.0000          0.0000          0.0000
   8.7600          4.5419          4.5419          4.5419          0.0000          0.0000          0.0000
   8.7800          4.5118          4.5118          4.5118          0.0000          0.0000          0.0000
   8.8000          4.4773          4.4773          4.4773          0.0000          0.0000          0.0000
   8.8200          4.4405          4.4405          4.4405          0.0000          0.0000          0.0000
   8.8400          4.4036          4.4036          4.4036          0.0000          0.0000          0.0000
   8.8600          4.3686          4.3686          4.3686          0.0000          0.0000          0.0000
   8.8800          4.3368          4.3368          4.3368          0.0000          0.0000          0.0000
   8.9000          4.3090          4.3090          4.3090          0.0000          0.0000          0.0000
   8.9200          4.2854          4.2854          4.2854          0.0000          0.0000          0.0000
   8.9400          4.2658          4.2658          4.2658          0.0000          0.0000          0.0000
   8.9600          4.2499          4.2499          4.2499          0.0000          0.0000          0.0000
   8.9800          4.2371          4.2371          4.2371          0.0000          0.0000          0.0000
   9.0000          4.2271          4.2271          4.2271          0.0000          0.0000          0.0000
   9.0200          4.2194          4.2194          4.2194          0.0000          0.0000          0.0000
   9.0400          4.2136          4.2136          4.2136          0.0000          0.0000          0.0000
   9.0600          4.2092          4.2092          4.2092          0.0000          0.0000          0.0000
   9.0800          4.2056          4.2056          4.2056          0.0000          0.0000          0.0000
   9.1000          4.2021          4.2021          4.2021          0.0000          0.0000          0.0000
   9.1200          4.1977          4.1977          4.1977          0.0000          0.0000          0.0000
   9.1400          4.1915          4.1915          4.1915          0.0000          0.0000          0.0000
   9.1600          4.1823          4.1823          4.1823          0.0000          0.0000          0.0000
   9.1800          4.1691          4.1691          4.1691          0.0000          0.0000          0.0000
   9.2000          4.1511          4.1511          4.1511          0.0000          0.0000          0.0000
   9.2200          4.1277          4.1277          4.1277          0.0000          0.0000          0.0000
   9.2400          4.0992          4.0992          4.0992          0.0000          0.0000          0.0000
   9.2600          4.0665          4.0665          4.0665          0.0000          0.0000          0.0000
   9.2800          4.0310          4.0310          4.0310          0.0000          0.0000          0.0000
   9.3000          3.9948          3.9948          3.9948          0.0000          0.0000          0.0000
   9.3200          3.9599          3.9599          3.9599          0.0000          0.0000          0.0000
   9.3400          3.9284          3.9284          3.9284          0.0000          0.0000          0.0000
   9.3600          3.9018          3.9018          3.9018          0.0000          0.0000          0.0000
   9.3800          3.8809          3.8809          3.8809          0.0000          0.0000          0.0000
   9.4000          3.8663          3.8663          3.8663          0.0000          0.0000          0.0000
   9.4200          3.8578          3.8578          3.8578          0.0000          0.0000          0.0000
   9.4400          3.8549          3.8549          3.8549          0.0000          0.0000          0.0000
   9.4600          3.8568          3.8568          3.8568          0.0000          0.0000          0.0000
   9.4800          3.8625          3.8625          3.8625          0.0000          0.0000          0.0000
   9.5000          3.8704          3.8704          3.8704          0.0000          0.0000          0.0000
   9.5200          3.8786          3.8786          3.8786          0.0000          0.0000          0.0000
   9.5400          3.8850          3.8850          3.8850          0.0000          0.0000          0.0000
   9.5600          3.8873          3.8873          3.8873          0.0000          0.0000          0.0000
   9.5800          3.8838          3.8838          3.8838          0.0000          0.0000          0.0000
   9.6000          3.8729          3.8729          3.8729          0.0000          0.0000          0.0000
   9.6200          3.8542          3.8542          3.8542          0.0000          0.0000          0.0000
   9.6400          3.8279          3.8279          3.8279          0.0000          0.0000          0.0000
   9.6600          3.7951          3.7951          3.7951          0.0000          0.0000          0.0000
   9.6800          3.7577          3.7577          3.7577          0.0000          0.0000          0.0000
   9.7000          3.7178          3.7178          3.7178          0.0000          0.0000          0.0000
   9.7200          3.6776          3.6776          3.6776          0.0000          0.0000          0.0000
   9.7400          3.6391          3.6391          3.6391          0.0000          0.0000          0.0000
   9.7600          3.6042          3.6042          3.6042          0.0000          0.0000          0.0000
   9.7800          3.5743          3.5743          3.5743          0.0000          0.0000          0.0000
   9.8000          3.5502          3.5502          3.5502          0.0000          0.0000          0.0000
   9.8200          3.5324          3.5324          3.5324          0.0000          0.0000          0.0000
   9.8400          3.5209          3.5209          3.5209          0.0000          0.0000          0.0000
   9.8600          3.5153          3.5153          3.5153          0.0000          0.0000          0.0000
   9.8800          3.5148          3.5148          3.5148          0.0000          0.0000          0.0000
   9.9000          3.5184          3.5184          3.5184          0.0000          0.0000          0.0000
   9.9200          3.5250          3.5250          3.5250          0.0000          0.0000          0.0000
   9.9400          3.5338          3.5338          3.5338          0.0000          0.0000          0.0000
   9.9600          3.5438          3.5438          3.5438          0.0000          0.0000          0.0000
   9.9800          3.5542          3.5542          3.5542          0.0000          0.0000          0.0000
  10.0000          3.5641          3.5641          3.5641          0.0000          0.0000          0.0000
  10.0200          3.5727          3.5727          3.5727          0.0000          0.0000          0.0000
  10.0400          3.5786          3.5786          3.5786          0.0000          0.0000          0.0000
  10.0600          3.5808          3.5808          3.5808          0.0000          0.0000          0.0000
  10.0800          3.5780          3.5780          3.5780          0.0000          0.0000          0.0000
  10.1000          3.5693          3.5693          3.5693          0.0000          0.0000          0.0000
  10.1200          3.5542          3.5542          3.5542          0.0000          0.0000          0.0000
  10.1400          3.5329          3.5329          3.5329          0.0000          0.0000          0.0000
  10.1600          3.5061          3.5061          3.5061          0.0000          0.0000          0.0000
  10.1800          3.4750          3.4750          3.4750          0.0000          0.0000          0.0000
  10.2000          3.4415          3.4415          3.4415          0.0000          0.0000          0.0000
  10.2200          3.4076          3.4076          3.4076          0.0000          0.0000          0.0000
  10.2400          3.3755          3.3755          3.3755          0.0000          0.0000          0.0000
  10.2600          3.3472          3.3472          3.3472          0.0000          0.0000          0.0000
  10.2800          3.3246          3.3246          3.3246          0.0000          0.0000          0.0000
  10.3000          3.3089          3.3089          3.3089          0.0000          0.0000          0.0000
  10.3200          3.3011          3.3011          3.3011          0.0000          0.0000          0.0000
  10.3400          3.3014          3.3014          3.3014          0.0000          0.0000          0.0000
  10.3600          3.3096          3.3096          3.3096          0.0000          0.0000          0.0000
  10.3800          3.3247          3.3247          3.3247          0.0000          0.0000          0.0000
  10.4000          3.3453          3.3453          3.3453          0.0000          0.0000          0.0000
  10.4200          3.3698          3.3698          3.3698          0.0000          0.0000          0.0000
  10.4400          3.3961          3.3961          3.3961          0.0000          0.0000          0.0000
  10.4600          3.4222          3.4222          3.4222          0.0000          0.0000          0.0000
  10.4800          3.4465          3.4465          3.4465          0.0000          0.0000          0.0000
  10.5000          3.4675          3.4675          3.4675          0.0000          0.0000          0.0000
  10.5200          3.4847          3.4847          3.4847          0.0000          0.0000          0.0000
  10.5400          3.4981          3.4981          3.4981          0.0000          0.0000          0.0000
  10.5600          3.5081          3.5081          3.5081          0.0000          0.0000          0.0000
  10.5800          3.5159          3.5159          3.5159          0.0000          0.0000          0.0000
  10.6000          3.5226          3.5226          3.5226          0.0000          0.0000          0.0000
  10.6200          3.5293          3.5293          3.5293          0.0000          0.0000          0.0000
  10.6400          3.5366          3.5366          3.5366          0.0000          0.0000          0.0000
  10.6600          3.5445          3.5445          3.5445          0.0000          0.0000          0.0000
  10.6800          3.5522          3.5522          3.5522          0.0000          0.0000          0.0000
  10.7000          3.5585          3.5585          3.5585          0.0000          0.0000          0.0000
  10.7200          3.5619          3.5619          3.5619          0.0000          0.0000          0.0000
  10.7400          3.5611          3.5611          3.5611          0.0000          0.0000          0.0000
  10.7600          3.5556          3.5556          3.5556          0.0000          0.0000          0.0000
  10.7800          3.5454          3.5454          3.5454          0.0000          0.0000          0.0000
  10.8000          3.5316          3.5316          3.5316          0.0000          0.0000          0.0000
  10.8200          3.5157          3.5157          3.5157          0.0000          0.0000          0.0000
  10.8400          3.4994          3.4994          3.4994          0.0000          0.0000          0.0000
  10.8600          3.4841          3.4841          3.4841          0.0000          0.0000          0.0000
  10.8800          3.4708          3.4708          3.4708          0.0000          0.0000          0.0000
  10.9000          3.4596          3.4596          3.4596          0.0000          0.0000          0.0000
  10.9200          3.4501          3.4501          3.4501          0.0000          0.0000          0.0000
  10.9400          3.4413          3.4413          3.4413          0.0000          0.0000          0.0000
  10.9600          3.4325          3.4325          3.4325          0.0000          0.0000          0.0000
  10.9800          3.4234          3.4234          3.4234          0.0000          0.0000          0.0000
  11.0000          3.4141          3.4141          3.4141          0.0000          0.0000          0.0000
  11.0200          3.4050          3.4050          3.4050          0.0000          0.0000          0.0000
  11.0400          3.3971          3.3971          3.3971          0.0000          0.0000          0.0000
  11.0600          3.3911          3.3911          3.3911          0.0000          0.0000          0.0000
  11.0800          3.3873          3.3873          3.3873          0.0000          0.0000          0.0000
  11.1000          3.3857          3.3857          3.3857          0.0000          0.0000          0.0000
  11.1200          3.3856          3.3856          3.3856          0.0000          0.0000          0.0000
  11.1400          3.3859          3.3859          3.3859          0.0000          0.0000          0.0000
  11.1600          3.3856          3.3856          3.3856          0.0000          0.0000          0.0000
  11.1800          3.3837          3.3837          3.3837          0.0000          0.0000          0.0000
  11.2000          3.3798          3.3798          3.3798          0.0000          0.0000          0.0000
  11.2200          3.3741          3.3741          3.3741          0.0000          0.0000          0.0000
  11.2400          3.3673          3.3673          3.3673          0.0000          0.0000          0.0000
  11.2600          3.3608          3.3608          3.3608          0.0000          0.0000          0.0000
  11.2800          3.3562          3.3562          3.3562          0.0000          0.0000          0.0000
  11.3000          3.3552          3.3552          3.3552          0.0000          0.0000          0.0000
  11.3200          3.3595          3.3595          3.3595          0.0000          0.0000          0.0000
  11.3400          3.3700          3.3700          3.3700          0.0000          0.0000          0.0000
  11.3600          3.3876          3.3876          3.3876          0.0000          0.0000          0.0000
  11.3800          3.4123          3.4123          3.4123          0.0000          0.0000          0.0000
  11.4000          3.4438          3.4438          3.4438          0.0000          0.0000          0.0000
  11.4200          3.4810          3.4810          3.4810          0.0000          0.0000          0.0000
  11.4400          3.5225          3.5225          3.5225          0.0000          0.0000          0.0000
  11.4600          3.5662          3.5662          3.5662          0.0000          0.0000          0.0000
  11.4800          3.6100          3.6100          3.6100          0.0000          0.0000          0.0000
  11.5000          3.6521          3.6521          3.6521          0.0000          0.0000          0.0000
  11.5200          3.6909          3.6909          3.6909          0.0000          0.0000          0.0000
  11.5400          3.7254          3.7254          3.7254          0.0000          0.0000          0.0000
  11.5600          3.7556          3.7556          3.7556          0.0000          0.0000          0.0000
  11.5800          3.7823          3.7823          3.7823          0.0000          0.0000          0.0000
  11.6000          3.8066          3.8066          3.8066          0.0000          0.0000          0.0000
  11.6200          3.8299          3.8299          3.8299          0.0000          0.0000          0.0000
  11.6400          3.8533          3.8533          3.8533          0.0000          0.0000          0.0000
  11.6600          3.8773          3.8773          3.8773          0.0000          0.0000          0.0000
  11.6800          3.9017          3.9017          3.9017          0.0000          0.0000          0.0000
  11.7000          3.9254          3.9254          3.9254          0.0000          0.0000          0.0000
  11.7200          3.9472          3.9472          3.9472          0.0000          0.0000          0.0000
  11.7400          3.9655          3.9655          3.9655          0.0000          0.0000          0.0000
  11.7600          3.9795          3.9795          3.9795          0.0000          0.0000          0.0000
  11.7800          3.9884          3.9884          3.9884          0.0000          0.0000          0.0000
  11.8000          3.9925          3.9925          3.9925          0.0000          0.0000          0.0000
  11.8200          3.9922          3.9922          3.9922          0.0000          0.0000          0.0000
  11.8400          3.9881          3.9881          3.9881          0.0000          0.0000          0.0000
  11.8600          3.9805          3.9805          3.9805          0.0000          0.0000          0.0000
  11.8800          3.9696          3.9696          3.9696          0.0000          0.0000          0.0000
  11.9000          3.9551          3.9551          3.9551          0.0000          0.0000          0.0000
  11.9200          3.9367          3.9367          3.9367          0.0000          0.0000          0.0000
  11.9400          3.9143          3.9143          3.9143          0.0000          0.0000          0.0000
  11.9600          3.8883          3.8883          3.8883          0.0000          0.0000          0.0000
  11.9800          3.8597          3.8597          3.8597          0.0000          0.0000          0.0000
  12.0000          3.8301          3.8301          3.8301          0.0000          0.0000          0.0000
  12.0200          3.8010          3.8010          3.8010          0.0000          0.0000          0.0000
  12.0400          3.7742          3.7742          3.7742          0.0000          0.0000          0.0000
  12.0600          3.7507          3.7507          3.7507          0.0000          0.0000          0.0000
  12.0800          3.7313          3.7313          3.7313          0.0000          0.0000          0.0000
  12.1000          3.7159          3.7159          3.7159          0.0000          0.0000          0.0000
  12.1200          3.7039          3.7039          3.7039          0.0000          0.0000          0.0000
  12.1400          3.6945          3.6945          3.6945          0.0000          0.0000          0.0000
  12.1600          3.6869          3.6869          3.6869          0.0000          0.0000          0.0000
  12.1800          3.6805          3.6805          3.6805          0.0000          0.0000          0.0000
  12.2000          3.6752          3.6752          3.6752          0.0000          0.0000          0.0000
  12.2200          3.6713          3.6713          3.6713          0.0000          0.0000          0.0000
  12.2400          3.6695          3.6695          3.6695          0.0000          0.0000          0.0000
  12.2600          3.6708          3.6708          3.6708          0.0000          0.0000          0.0000
  12.2800          3.6760          3.6760          3.6760          0.0000          0.0000          0.0000
  12.3000          3.6856          3.6856          3.6856          0.0000          0.0000          0.0000
  12.3200          3.6996          3.6996          3.6996          0.0000          0.0000          0.0000
  12.3400          3.7171          3.7171          3.7171          0.0000          0.0000          0.0000
  12.3600          3.7369          3.7369          3.7369          0.0000          0.0000          0.0000
  12.3800          3.7573          3.7573          3.7573          0.0000          0.0000          0.0000
  12.4000          3.7761          3.7761          3.7761          0.0000          0.0000          0.0000
  12.4200          3.7917          3.7917          3.7917          0.0000          0.0000          0.0000
  12.4400          3.8025          3.8025          3.8025          0.0000          0.0000          0.0000
  12.4600          3.8076          3.8076          3.8076          0.0000          0.0000          0.0000
  12.4800          3.8068          3.8068          3.8068          0.0000          0.0000          0.0000
  12.5000          3.8007          3.8007          3.8007          0.0000          0.0000          0.0000
  12.5200          3.7904          3.7904          3.7904          0.0000          0.0000          0.0000
  12.5400          3.7775          3.7775          3.7775          0.0000          0.0000          0.0000
  12.5600          3.7634          3.7634          3.7634          0.0000          0.0000          0.0000
  12.5800          3.7499          3.7499          3.7499          0.0000          0.0000          0.0000
  12.6000          3.7378          3.7378          3.7378          0.0000          0.0000          0.0000
  12.6200          3.7278          3.7278          3.7278          0.0000          0.0000          0.0000
  12.6400          3.7198          3.7198          3.7198          0.0000          0.0000          0.0000
  12.6600          3.7135          3.7135          3.7135          0.0000          0.0000          0.0000
  12.6800          3.7085          3.7085          3.7085          0.0000          0.0000          0.0000
  12.7000          3.7046          3.7046          3.7046          0.0000          0.0000          0.0000
  12.7200          3.7020          3.7020          3.7020          0.0000          0.0000          0.0000
  12.7400          3.7010          3.7010          3.7010          0.0000          0.0000          0.0000
  12.7600          3.7027          3.7027          3.7027          0.0000          0.0000          0.0000
  12.7800          3.7078          3.7078          3.7078          0.0000          0.0000          0.0000
  12.8000          3.7172          3.7172          3.7172          0.0000          0.0000          0.0000
  12.8200          3.7314          3.7314          3.7314          0.0000          0.0000          0.0000
  12.8400          3.7504          3.7504          3.7504          0.0000          0.0000          0.0000
  12.8600          3.7735          3.7735          3.7735          0.0000          0.0000          0.0000
  12.8800          3.7997          3.7997          3.7997          0.0000          0.0000          0.0000
  12.9000          3.8277          3.8277          3.8277          0.0000          0.0000          0.0000
  12.9200          3.8560          3.8560          3.8560          0.0000          0.0000          0.0000
  12.9400          3.8832          3.8832          3.8832          0.0000          0.0000          0.0000
  12.9600          3.9085          3.9085          3.9085          0.0000          0.0000          0.0000
  12.9800          3.9317          3.9317          3.9317          0.0000          0.0000          0.0000
  13.0000          3.9531          3.9531          3.9531          0.0000          0.0000          0.0000
  13.0200          3.9737          3.9737          3.9737          0.0000          0.0000          0.0000
  13.0400          3.9944          3.9944          3.9944          0.0000          0.0000          0.0000
  13.0600          4.0163          4.0163          4.0163          0.0000          0.0000          0.0000
  13.0800          4.0397          4.0397          4.0397          0.0000          0.0000          0.0000
  13.1000          4.0644          4.0644          4.0644          0.0000          0.0000          0.0000
  13.1200          4.0891          4.0891          4.0891          0.0000          0.0000          0.0000
  13.1400          4.1120          4.1120          4.1120          0.0000          0.0000          0.0000
  13.1600          4.1308          4.1308          4.1308          0.0000          0.0000          0.0000
  13.1800          4.1430          4.1430          4.1430          0.0000          0.0000          0.0000
  13.2000          4.1465          4.1465          4.1465          0.0000          0.0000          0.0000
  13.2200          4.1399          4.1399          4.1399          0.0000          0.0000          0.0000
  13.2400          4.1226          4.1226          4.1226          0.0000          0.0000          0.0000
  13.2600          4.0948          4.0948          4.0948          0.0000          0.0000          0.0000
  13.2800          4.0579          4.0579          4.0579          0.0000          0.0000          0.0000
  13.3000          4.0139          4.0139          4.0139          0.0000          0.0000          0.0000
  13.3200          3.9654          3.9654          3.9654          0.0000          0.0000          0.0000
  13.3400          3.9154          3.9154          3.9154          0.0000          0.0000          0.0000
  13.3600          3.8669          3.8669          3.8669          0.0000          0.0000          0.0000
  13.3800          3.8228          3.8228          3.8228          0.0000          0.0000          0.0000
  13.4000          3.7854          3.7854          3.7854          0.0000          0.0000          0.0000
  13.4200          3.7565          3.7565          3.7565          0.0000          0.0000          0.0000
  13.4400          3.7368          3.7368          3.7368          0.0000          0.0000          0.0000
  13.4600          3.7263          3.7263          3.7263          0.0000          0.0000          0.0000
  13.4800          3.7243          3.7243          3.7243          0.0000          0.0000          0.0000
  13.5000          3.7289          3.7289          3.7289          0.0000          0.0000          0.0000
  13.5200          3.7381          3.7381          3.7381          0.0000          0.0000          0.0000
  13.5400          3.7492          3.7492          3.7492          0.0000          0.0000          0.0000
  13.5600          3.7600          3.7600          3.7600          0.0000          0.0000          0.0000
  13.5800          3.7684          3.7684          3.7684          0.0000          0.0000          0.0000
  13.6000          3.7733          3.7733          3.7733          0.0000          0.0000          0.0000
  13.6200          3.7744          3.7744          3.7744          0.0000          0.0000          0.0000
  13.6400          3.7727          3.7727          3.7727          0.0000          0.0000          0.0000
  13.6600          3.7695          3.7695          3.7695          0.0000          0.0000          0.0000
  13.6800          3.7668          3.7668          3.7668          0.0000          0.0000          0.0000
  13.7000          3.7666          3.7666          3.7666          0.0000          0.0000          0.0000
  13.7200          3.7704          3.7704          3.7704          0.0000          0.0000          0.0000
  13.7400          3.7792          3.7792          3.7792          0.0000          0.0000          0.0000
  13.7600          3.7928          3.7928          3.7928          0.0000          0.0000          0.0000
  13.7800          3.8104          3.8104          3.8104          0.0000          0.0000          0.0000
  13.8000          3.8304          3.8304          3.8304          0.0000          0.0000          0.0000
  13.8200          3.8509          3.8509          3.8509          0.0000          0.0000          0.0000
  13.8400          3.8701          3.8701          3.8701          0.0000          0.0000          0.0000
  13.8600          3.8866          3.8866          3.8866          0.0000          0.0000          0.0000
  13.8800          3.8994          3.8994          3.8994          0.0000          0.0000          0.0000
  13.9000          3.9083          3.9083          3.9083          0.0000          0.0000          0.0000
  13.9200          3.9131          3.9131          3.9131          0.0000          0.0000          0.0000
  13.9400          3.9141          3.9141          3.9141          0.0000          0.0000          0.0000
  13.9600          3.9112          3.9112          3.9112          0.0000          0.0000          0.0000
  13.9800          3.9043          3.9043          3.9043          0.0000          0.0000          0.0000
  14.0000          3.8930          3.8930          3.8930          0.0000          0.0000          0.0000
  14.0200          3.8769          3.8769          3.8769          0.0000          0.0000          0.0000
  14.0400          3.8560          3.8560          3.8560          0.0000          0.0000          0.0000
  14.0600          3.8303          3.8303          3.8303          0.0000          0.0000          0.0000
  14.0800          3.8004          3.8004          3.8004          0.0000          0.0000          0.0000
  14.1000          3.7672          3.7672          3.7672          0.0000          0.0000          0.0000
  14.1200          3.7317          3.7317          3.7317          0.0000          0.0000          0.0000
  14.1400          3.6950          3.6950          3.6950          0.0000          0.0000          0.0000
  14.1600          3.6579          3.6579          3.6579          0.0000          0.0000          0.0000
  14.1800          3.6209          3.6209          3.6209          0.0000          0.0000          0.0000
  14.2000          3.5844          3.5844          3.5844          0.0000          0.0000          0.0000
  14.2200          3.5484          3.5484          3.5484          0.0000          0.0000          0.0000
  14.2400          3.5129          3.5129          3.5129          0.0000          0.0000          0.0000
  14.2600          3.4779          3.4779          3.4779          0.0000          0.0000          0.0000
  14.2800          3.4436          3.4436          3.4436          0.0000          0.0000          0.0000
  14.3000          3.4103          3.4103          3.4103          0.0000          0.0000          0.0000
  14.3200          3.3791          3.3791          3.3791          0.0000          0.0000          0.0000
  14.3400          3.3512          3.3512          3.3512          0.0000          0.0000          0.0000
  14.3600          3.3282          3.3282          3.3282          0.0000          0.0000          0.0000
  14.3800          3.3122          3.3122          3.3122          0.0000          0.0000          0.0000
  14.4000          3.3050          3.3050          3.3050          0.0000          0.0000          0.0000
  14.4200          3.3082          3.3082          3.3082          0.0000          0.0000          0.0000
  14.4400          3.3229          3.3229          3.3229          0.0000          0.0000          0.0000
  14.4600          3.3490          3.3490          3.3490          0.0000          0.0000          0.0000
  14.4800          3.3860          3.3860          3.3860          0.0000          0.0000          0.0000
  14.5000          3.4322          3.4322          3.4322          0.0000          0.0000          0.0000
  14.5200          3.4856          3.4856          3.4856          0.0000          0.0000          0.0000
  14.5400          3.5438          3.5438          3.5438          0.0000          0.0000          0.0000
  14.5600          3.6041          3.6041          3.6041          0.0000          0.0000          0.0000
  14.5800          3.6641          3.6641          3.6641          0.0000          0.0000          0.0000
  14.6000          3.7212          3.7212          3.7212          0.0000          0.0000          0.0000
  14.6200          3.7728          3.7728          3.7728          0.0000          0.0000          0.0000
  14.6400          3.8168          3.8168          3.8168          0.0000          0.0000          0.0000
  14.6600          3.8511          3.8511          3.8511          0.0000          0.0000          0.0000
  14.6800          3.8742          3.8742          3.8742          0.0000          0.0000          0.0000
  14.7000          3.8855          3.8855          3.8855          0.0000          0.0000          0.0000
  14.7200          3.8849          3.8849          3.8849          0.0000          0.0000          0.0000
  14.7400          3.8733          3.8733          3.8733          0.0000          0.0000          0.0000
  14.7600          3.8522          3.8522          3.8522          0.0000          0.0000          0.0000
  14.7800          3.8234          3.8234          3.8234          0.0000          0.0000          0.0000
  14.8000          3.7889          3.7889          3.7889          0.0000          0.0000          0.0000
  14.8200          3.7506          3.7506          3.7506          0.0000          0.0000          0.0000
  14.8400          3.7098          3.7098          3.7098          0.0000          0.0000          0.0000
  14.8600          3.6678          3.6678          3.6678          0.0000          0.0000          0.0000
  14.8800          3.6251          3.6251          3.6251          0.0000          0.0000          0.0000
  14.9000          3.5820          3.5820          3.5820          0.0000          0.0000          0.0000
  14.9200          3.5386          3.5386          3.5386          0.0000          0.0000          0.0000
  14.9400          3.4951          3.4951          3.4951          0.0000          0.0000          0.0000
  14.9600          3.4518          3.4518          3.4518          0.0000          0.0000          0.0000
  14.9800          3.4094          3.4094          3.4094          0.0000          0.0000          0.0000
  15.0000          3.3687          3.3687          3.3687          0.0000          0.0000          0.0000
  15.0200          3.3309          3.3309          3.3309          0.0000          0.0000          0.0000
  15.0400          3.2972          3.2972          3.2972          0.0000          0.0000          0.0000
  15.0600          3.2687          3.2687          3.2687          0.0000          0.0000          0.0000
  15.0800          3.2461          3.2461          3.2461          0.0000          0.0000          0.0000
  15.1000          3.2295          3.2295          3.2295          0.0000          0.0000          0.0000
  15.1200          3.2187          3.2187          3.2187          0.0000          0.0000          0.0000
  15.1400          3.2130          3.2130          3.2130          0.0000          0.0000          0.0000
  15.1600          3.2114          3.2114          3.2114          0.0000          0.0000          0.0000
  15.1800          3.2128          3.2128          3.2128          0.0000          0.0000          0.0000
  15.2000          3.2164          3.2164          3.2164          0.0000          0.0000          0.0000
  15.2200          3.2219          3.2219          3.2219          0.0000          0.0000          0.0000
  15.2400          3.2291          3.2291          3.2291          0.0000          0.0000          0.0000
  15.2600          3.2385          3.2385          3.2385          0.0000          0.0000          0.0000
  15.2800          3.2506          3.2506          3.2506          0.0000          0.0000          0.0000
  15.3000          3.2661          3.2661          3.2661          0.0000          0.0000          0.0000
  15.3200          3.2853          3.2853          3.2853          0.0000          0.0000          0.0000
  15.3400          3.3082          3.3082          3.3082          0.0000          0.0000          0.0000
  15.3600          3.3342          3.3342          3.3342          0.0000          0.0000          0.0000
  15.3800          3.3621          3.3621          3.3621          0.0000          0.0000          0.0000
  15.4000          3.3904          3.3904          3.3904          0.0000          0.0000          0.0000
  15.4200          3.4170          3.4170          3.4170          0.0000          0.0000          0.0000
  15.4400          3.4403          3.4403          3.4403          0.0000          0.0000          0.0000
  15.4600          3.4586          3.4586          3.4586          0.0000          0.0000          0.0000
  15.4800          3.4712          3.4712          3.4712          0.0000          0.0000          0.0000
  15.5000          3.4782          3.4782          3.4782          0.0000          0.0000          0.0000
  15.5200          3.4805          3.4805          3.4805          0.0000          0.0000          0.0000
  15.5400          3.4797          3.4797          3.4797          0.0000          0.0000          0.0000
  15.5600          3.4773          3.4773          3.4773          0.0000          0.0000          0.0000
  15.5800          3.4750          3.4750          3.4750          0.0000          0.0000          0.0000
  15.6000          3.4737          3.4737          3.4737          0.0000          0.0000          0.0000
  15.6200          3.4737          3.4737          3.4737          0.0000          0.0000          0.0000
  15.6400          3.4751          3.4751          3.4751          0.0000          0.0000          0.0000
  15.6600          3.4776          3.4776          3.4776          0.0000          0.0000          0.0000
  15.6800          3.4806          3.4806          3.4806          0.0000          0.0000          0.0000
  15.7000          3.4842          3.4842          3.4842          0.0000          0.0000          0.0000
  15.7200          3.4883          3.4883          3.4883          0.0000          0.0000          0.0000
  15.7400          3.4932          3.4932          3.4932          0.0000          0.0000          0.0000
  15.7600          3.4994          3.4994          3.4994          0.0000          0.0000          0.0000
  15.7800          3.5072          3.5072          3.5072          0.0000          0.0000          0.0000
  15.8000          3.5165          3.5165          3.5165          0.0000          0.0000          0.0000
  15.8200          3.5272          3.5272          3.5272          0.0000          0.0000          0.0000
  15.8400          3.5385          3.5385          3.5385          0.0000          0.0000          0.0000
  15.8600          3.5495          3.5495          3.5495          0.0000          0.0000          0.0000
  15.8800          3.5590          3.5590          3.5590          0.0000          0.0000          0.0000
  15.9000          3.5657          3.5657          3.5657          0.0000          0.0000          0.0000
  15.9200          3.5685          3.5685          3.5685          0.0000          0.0000          0.0000
  15.9400          3.5667          3.5667          3.5667          0.0000          0.0000          0.0000
  15.9600          3.5601          3.5601          3.5601          0.0000          0.0000          0.0000
  15.9800          3.5492          3.5492          3.5492          0.0000          0.0000          0.0000
  16.0000          3.5352          3.5352          3.5352          0.0000          0.0000          0.0000
  16.0200          3.5196          3.5196          3.5196          0.0000          0.0000          0.0000
  16.0400          3.5044          3.5044          3.5044          0.0000          0.0000          0.0000
  16.0600          3.4912          3.4912          3.4912          0.0000          0.0000          0.0000
  16.0800          3.4814          3.4814          3.4814          0.0000          0.0000          0.0000
  16.1000          3.4755          3.4755          3.4755          0.0000          0.0000          0.0000
  16.1200          3.4729          3.4729          3.4729          0.0000          0.0000          0.0000
  16.1400          3.4721          3.4721          3.4721          0.0000          0.0000          0.0000
  16.1600          3.4709          3.4709          3.4709          0.0000          0.0000          0.0000
  16.1800          3.4668          3.4668          3.4668          0.0000          0.0000          0.0000
  16.2000          3.4574          3.4574          3.4574          0.0000          0.0000          0.0000
  16.2200          3.4414          3.4414          3.4414          0.0000          0.0000          0.0000
  16.2400          3.4182          3.4182          3.4182          0.0000          0.0000          0.0000
  16.2600          3.3886          3.3886          3.3886          0.0000          0.0000          0.0000
  16.2800          3.3545          3.3545          3.3545          0.0000          0.0000          0.0000
  16.3000          3.3187          3.3187          3.3187          0.0000          0.0000          0.0000
  16.3200          3.2839          3.2839          3.2839          0.0000          0.0000          0.0000
  16.3400          3.2530          3.2530          3.2530          0.0000          0.0000          0.0000
  16.3600          3.2282          3.2282          3.2282          0.0000          0.0000          0.0000
  16.3800          3.2105          3.2105          3.2105          0.0000          0.0000          0.0000
  16.4000          3.2002          3.2002          3.2002          0.0000          0.0000          0.0000
  16.4200          3.1966          3.1966          3.1966          0.0000          0.0000          0.0000
  16.4400          3.1983          3.1983          3.1983          0.0000          0.0000          0.0000
  16.4600          3.2040          3.2040          3.2040          0.0000          0.0000          0.0000
  16.4800          3.2122          3.2122          3.2122          0.0000          0.0000          0.0000
  16.5000          3.2223          3.2223          3.2223          0.0000          0.0000          0.0000
  16.5200          3.2340          3.2340          3.2340          0.0000          0.0000          0.0000
  16.5400          3.2477          3.2477          3.2477          0.0000          0.0000          0.0000
  16.5600          3.2638          3.2638          3.2638          0.0000          0.0000          0.0000
  16.5800          3.2829          3.2829          3.2829          0.0000          0.0000          0.0000
  16.6000          3.3054          3.3054          3.3054          0.0000          0.0000          0.0000
  16.6200          3.3310          3.3310          3.3310          0.0000          0.0000          0.0000
  16.6400          3.3593          3.3593          3.3593          0.0000          0.0000          0.0000
  16.6600          3.3896          3.3896          3.3896          0.0000          0.0000          0.0000
  16.6800          3.4211          3.4211          3.4211          0.0000          0.0000          0.0000
  16.7000          3.4531          3.4531          3.4531          0.0000          0.0000          0.0000
  16.7200          3.4851          3.4851          3.4851          0.0000          0.0000          0.0000
  16.7400          3.5169          3.5169          3.5169          0.0000          0.0000          0.0000
  16.7600          3.5483          3.5483          3.5483          0.0000          0.0000          0.0000
  16.7800          3.5792          3.5792          3.5792          0.0000          0.0000          0.0000
  16.8000          3.6092          3.6092          3.6092          0.0000          0.0000          0.0000
  16.8200          3.6373          3.6373          3.6373          0.0000          0.0000          0.0000
  16.8400          3.6624          3.6624          3.6624          0.0000          0.0000          0.0000
  16.8600          3.6828          3.6828          3.6828          0.0000          0.0000          0.0000
  16.8800          3.6963          3.6963          3.6963          0.0000          0.0000          0.0000
  16.9000          3.7009          3.7009          3.7009          0.0000          0.0000          0.0000
  16.9200          3.6947          3.6947          3.6947          0.0000          0.0000          0.0000
  16.9400          3.6765          3.6765          3.6765          0.0000          0.0000          0.0000
  16.9600          3.6460          3.6460          3.6460          0.0000          0.0000          0.0000
  16.9800          3.6044          3.6044          3.6044          0.0000          0.0000          0.0000
  17.0000          3.5536          3.5536          3.5536          0.0000          0.0000          0.0000
  17.0200          3.4968          3.4968          3.4968          0.0000          0.0000          0.0000
  17.0400          3.4380          3.4380          3.4380          0.0000          0.0000          0.0000
  17.0600          3.3808          3.3808          3.3808          0.0000          0.0000          0.0000
  17.0800          3.3288          3.3288          3.3288          0.0000          0.0000          0.0000
  17.1000          3.2846          3.2846          3.2846          0.0000          0.0000          0.0000
  17.1200          3.2499          3.2499          3.2499          0.0000          0.0000          0.0000
  17.1400          3.2250          3.2250          3.2250          0.0000          0.0000          0.0000
  17.1600          3.2095          3.2095          3.2095          0.0000          0.0000          0.0000
  17.1800          3.2021          3.2021          3.2021          0.0000          0.0000          0.0000
  17.2000          3.2011          3.2011          3.2011          0.0000          0.0000          0.0000
  17.2200          3.2050          3.2050          3.2050          0.0000          0.0000          0.0000
  17.2400          3.2121          3.2121          3.2121          0.0000          0.0000          0.0000
  17.2600          3.2213          3.2213          3.2213          0.0000          0.0000          0.0000
  17.2800          3.2317          3.2317          3.2317          0.0000          0.0000          0.0000
  17.3000          3.2430          3.2430          3.2430          0.0000          0.0000          0.0000
  17.3200          3.2546          3.2546          3.2546          0.0000          0.0000          0.0000
  17.3400          3.2663          3.2663          3.2663          0.0000          0.0000          0.0000
  17.3600          3.2774          3.2774          3.2774          0.0000          0.0000          0.0000
  17.3800          3.2872          3.2872          3.2872          0.0000          0.0000          0.0000
  17.4000          3.2950          3.2950          3.2950          0.0000          0.0000          0.0000
  17.4200          3.3001          3.3001          3.3001          0.0000          0.0000          0.0000
  17.4400          3.3019          3.3019          3.3019          0.0000          0.0000          0.0000
  17.4600          3.3006          3.3006          3.3006          0.0000          0.0000          0.0000
  17.4800          3.2968          3.2968          3.2968          0.0000          0.0000          0.0000
  17.5000          3.2916          3.2916          3.2916          0.0000          0.0000          0.0000
  17.5200          3.2866          3.2866          3.2866          0.0000          0.0000          0.0000
  17.5400          3.2834          3.2834          3.2834          0.0000          0.0000          0.0000
  17.5600          3.2836          3.2836          3.2836          0.0000          0.0000          0.0000
  17.5800          3.2887          3.2887          3.2887          0.0000          0.0000          0.0000
  17.6000          3.2994          3.2994          3.2994          0.0000          0.0000          0.0000
  17.6200          3.3162          3.3162          3.3162          0.0000          0.0000          0.0000
  17.6400          3.3388          3.3388          3.3388          0.0000          0.0000          0.0000
  17.6600          3.3664          3.3664          3.3664          0.0000          0.0000          0.0000
  17.6800          3.3976          3.3976          3.3976          0.0000          0.0000          0.0000
  17.7000          3.4307          3.4307          3.4307          0.0000          0.0000          0.0000
  17.7200          3.4636          3.4636          3.4636          0.0000          0.0000          0.0000
  17.7400          3.4943          3.4943          3.4943          0.0000          0.0000          0.0000
  17.7600          3.5207          3.5207          3.5207          0.0000          0.0000          0.0000
  17.7800          3.5414          3.5414          3.5414          0.0000          0.0000          0.0000
  17.8000          3.5554          3.5554          3.5554          0.0000          0.0000          0.0000
  17.8200          3.5624          3.5624          3.5624          0.0000          0.0000          0.0000
  17.8400          3.5628          3.5628          3.5628          0.0000          0.0000          0.0000
  17.8600          3.5576          3.5576          3.5576          0.0000          0.0000          0.0000
  17.8800          3.5482          3.5482          3.5482          0.0000          0.0000          0.0000
  17.9000          3.5363          3.5363          3.5363          0.0000          0.0000          0.0000
  17.9200          3.5234          3.5234          3.5234          0.0000          0.0000          0.0000
  17.9400          3.5109          3.5109          3.5109          0.0000          0.0000          0.0000
  17.9600          3.4996          3.4996          3.4996          0.0000          0.0000          0.0000
  17.9800          3.4897          3.4897          3.4897          0.0000          0.0000          0.0000
  18.0000          3.4812          3.4812          3.4812          0.0000          0.0000          0.0000
  18.0200          3.4737          3.4737          3.4737          0.0000          0.0000          0.0000
  18.0400          3.4669          3.4669          3.4669          0.0000          0.0000          0.0000
  18.0600          3.4606          3.4606          3.4606          0.0000          0.0000          0.0000
  18.0800          3.4549          3.4549          3.4549          0.0000          0.0000          0.0000
  18.1000          3.4502          3.4502          3.4502          0.0000          0.0000          0.0000
  18.1200          3.4471          3.4471          3.4471          0.0000          0.0000          0.0000
  18.1400          3.4460          3.4460          3.4460          0.0000          0.0000          0.0000
  18.1600          3.4471          3.4471          3.4471          0.0000          0.0000          0.0000
  18.1800          3.4503          3.4503          3.4503          0.0000          0.0000          0.0000
  18.2000          3.4552          3.4552          3.4552          0.0000          0.0000          0.0000
  18.2200          3.4610          3.4610          3.4610          0.0000          0.0000          0.0000
  18.2400          3.4670          3.4670          3.4670          0.0000          0.0000          0.0000
  18.2600          3.4727          3.4727          3.4727          0.0000          0.0000          0.0000
  18.2800          3.4778          3.4778          3.4778          0.0000          0.0000          0.0000
  18.3000          3.4823          3.4823          3.4823          0.0000          0.0000          0.0000
  18.3200          3.4865          3.4865          3.4865          0.0000          0.0000          0.0000
  18.3400          3.4909          3.4909          3.4909          0.0000          0.0000          0.0000
  18.3600          3.4960          3.4960          3.4960          0.0000          0.0000          0.0000
  18.3800          3.5019          3.5019          3.5019          0.0000          0.0000          0.0000
  18.4000          3.5089          3.5089          3.5089          0.0000          0.0000          0.0000
  18.4200          3.5172          3.5172          3.5172          0.0000          0.0000          0.0000
  18.4400          3.5271          3.5271          3.5271          0.0000          0.0000          0.0000
  18.4600          3.5390          3.5390          3.5390          0.0000          0.0000          0.0000
  18.4800          3.5535          3.5535          3.5535          0.0000          0.0000          0.0000
  18.5000          3.5710          3.5710          3.5710          0.0000          0.0000          0.0000
  18.5200          3.5918          3.5918          3.5918          0.0000          0.0000          0.0000
  18.5400          3.6160          3.6160          3.6160          0.0000          0.0000          0.0000
  18.5600          3.6430          3.6430          3.6430          0.0000          0.0000          0.0000
  18.5800          3.6723          3.6723          3.6723          0.0000          0.0000          0.0000
  18.6000          3.7033          3.7033          3.7033          0.0000          0.0000          0.0000
  18.6200          3.7356          3.7356          3.7356          0.0000          0.0000          0.0000
  18.6400          3.7693          3.7693          3.7693          0.0000          0.0000          0.0000
  18.6600          3.8048          3.8048          3.8048          0.0000          0.0000          0.0000
  18.6800          3.8433          3.8433          3.8433          0.0000          0.0000          0.0000
  18.7000          3.8861          3.8861          3.8861          0.0000          0.0000          0.0000
  18.7200          3.9346          3.9346          3.9346          0.0000          0.0000          0.0000
  18.7400          3.9900          3.9900          3.9900          0.0000          0.0000          0.0000
  18.7600          4.0533          4.0533          4.0533          0.0000          0.0000          0.0000
  18.7800          4.1252          4.1252          4.1252          0.0000          0.0000          0.0000
  18.8000          4.2061          4.2061          4.2061          0.0000          0.0000          0.0000
  18.8200          4.2960          4.2960          4.2960          0.0000          0.0000          0.0000
  18.8400          4.3949          4.3949          4.3949          0.0000          0.0000          0.0000
  18.8600          4.5022          4.5022          4.5022          0.0000          0.0000          0.0000
  18.8800          4.6167          4.6167          4.6167          0.0000          0.0000          0.0000
  18.9000          4.7363          4.7363          4.7363          0.0000          0.0000          0.0000
  18.9200          4.8582          4.8582          4.8582          0.0000          0.0000          0.0000
  18.9400          4.9783          4.9783          4.9783          0.0000          0.0000          0.0000
  18.9600          5.0920          5.0920          5.0920          0.0000          0.0000          0.0000
  18.9800          5.1944          5.1944          5.1944          0.0000          0.0000          0.0000
  19.0000          5.2809          5.2809          5.2809          0.0000          0.0000          0.0000
  19.0200          5.3479          5.3479          5.3479          0.0000          0.0000          0.0000
  19.0400          5.3932          5.3932          5.3932          0.0000          0.0000          0.0000
  19.0600          5.4164          5.4164          5.4164          0.0000          0.0000          0.0000
  19.0800          5.4185          5.4185          5.4185          0.0000          0.0000          0.0000
  19.1000          5.4021          5.4021          5.4021          0.0000          0.0000          0.0000
  19.1200          5.3705          5.3705          5.3705          0.0000          0.0000          0.0000
  19.1400          5.3279          5.3279          5.3279          0.0000          0.0000          0.0000
  19.1600          5.2784          5.2784          5.2784          0.0000          0.0000          0.0000
  19.1800          5.2257          5.2257          5.2257          0.0000          0.0000          0.0000
  19.2000          5.1734          5.1734          5.1734          0.0000          0.0000          0.0000
  19.2200          5.1243          5.1243          5.1243          0.0000          0.0000          0.0000
  19.2400          5.0808          5.0808          5.0808          0.0000          0.0000          0.0000
  19.2600          5.0446          5.0446          5.0446          0.0000          0.0000          0.0000
  19.2800          5.0172          5.0172          5.0172          0.0000          0.0000          0.0000
  19.3000          4.9991          4.9991          4.9991          0.0000          0.0000          0.0000
  19.3200          4.9902          4.9902          4.9902          0.0000          0.0000          0.0000
  19.3400          4.9898          4.9898          4.9898          0.0000          0.0000          0.0000
  19.3600          4.9961          4.9961          4.9961          0.0000          0.0000          0.0000
  19.3800          5.0073          5.0073          5.0073          0.0000          0.0000          0.0000
  19.4000          5.0207          5.0207          5.0207          0.0000          0.0000          0.0000
  19.4200          5.0342          5.0342          5.0342          0.0000          0.0000          0.0000
  19.4400          5.0459          5.0459          5.0459          0.0000          0.0000          0.0000
  19.4600          5.0546          5.0546          5.0546          0.0000          0.0000          0.0000
  19.4800          5.0601          5.0601          5.0601          0.0000          0.0000          0.0000
  19.5000          5.0628          5.0628          5.0628          0.0000          0.0000          0.0000
  19.5200          5.0637          5.0637          5.0637          0.0000          0.0000          0.0000
  19.5400          5.0637          5.0637          5.0637          0.0000          0.0000          0.0000
  19.5600          5.0636          5.0636          5.0636          0.0000          0.0000          0.0000
  19.5800          5.0635          5.0635          5.0635          0.0000          0.0000          0.0000
  19.6000          5.0633          5.0633          5.0633          0.0000          0.0000          0.0000
  19.6200          5.0626          5.0626          5.0626          0.0000          0.0000          0.0000
  19.6400          5.0610          5.0610          5.0610          0.0000          0.0000          0.0000
  19.6600          5.0584          5.0584          5.0584          0.0000          0.0000          0.0000
  19.6800          5.0550          5.0550          5.0550          0.0000          0.0000          0.0000
  19.7000          5.0512          5.0512          5.0512          0.0000          0.0000          0.0000
  19.7200          5.0470          5.0470          5.0470          0.0000          0.0000          0.0000
  19.7400          5.0417          5.0417          5.0417          0.0000          0.0000          0.0000
  19.7600          5.0336          5.0336          5.0336          0.0000          0.0000          0.0000
  19.7800          5.0199          5.0199          5.0199          0.0000          0.0000          0.0000
  19.8000          4.9966          4.9966          4.9966          0.0000          0.0000          0.0000
  19.8200          4.9593          4.9593          4.9593          0.0000          0.0000          0.0000
  19.8400          4.9032          4.9032          4.9032          0.0000          0.0000          0.0000
  19.8600          4.8240          4.8240          4.8240          0.0000          0.0000          0.0000
  19.8800          4.7176          4.7176          4.7176          0.0000          0.0000          0.0000
  19.9000          4.5802          4.5802          4.5802          0.0000          0.0000          0.0000
  19.9200          4.4075          4.4075          4.4075          0.0000          0.0000          0.0000
  19.9400          4.1946          4.1946          4.1946          0.0000          0.0000          0.0000
  19.9600          3.9362          3.9362          3.9362          0.0000          0.0000          0.0000
  19.9800          3.6291          3.6291          3.6291          0.0000          0.0000          0.0000
  20.0000          3.2780          3.2780          3.2780          0.0000          0.0000          0.0000
