### linear absorption coefficients(in units of 10^5 cm-1)
   0.0000          0.0000          0.0000          0.0000          0.0000          0.0000          0.0000
   0.0200          0.6237          0.6237          0.6237          0.0000          0.0000          0.0000
   0.0400          0.8843          0.8843          0.8843          0.0000          0.0000          0.0000
   0.0600          1.0856          1.0856          1.0856          0.0000          0.0000          0.0000
   0.0800          1.2563          1.2563          1.2563          0.0000          0.0000          0.0000
   0.1000          1.4076          1.4076          1.4076          0.0000          0.0000          0.0000
   0.1200          1.5451          1.5451          1.5451          0.0000          0.0000          0.0000
   0.1400          1.6721          1.6721          1.6721          0.0000          0.0000          0.0000
   0.1600          1.7908          1.7908          1.7908          0.0000          0.0000          0.0000
   0.1800          1.9027          1.9027          1.9027          0.0000          0.0000          0.0000
   0.2000          2.0088          2.0088          2.0088          0.0000          0.0000          0.0000
   0.2200          2.1099          2.1099          2.1099          0.0000          0.0000          0.0000
   0.2400          2.2067          2.2067          2.2067          0.0000          0.0000          0.0000
   0.2600          2.2996          2.2996          2.2996          0.0000          0.0000          0.0000
   0.2800          2.3891          2.3891          2.3891          0.0000          0.0000          0.0000
   0.3000          2.4754          2.4754          2.4754          0.0000          0.0000          0.0000
   0.3200          2.5588          2.5588          2.5588          0.0000          0.0000          0.0000
   0.3400          2.6395          2.6395          2.6395          0.0000          0.0000          0.0000
   0.3600          2.7178          2.7178          2.7178          0.0000          0.0000          0.0000
   0.3800          2.7936          2.7936          2.7936          0.0000          0.0000          0.0000
   0.4000          2.8672          2.8672          2.8672          0.0000          0.0000          0.0000
   0.4200          2.9388          2.9388          2.9388          0.0000          0.0000          0.0000
   0.4400          3.0082          3.0082          3.0082          0.0000          0.0000          0.0000
   0.4600          3.0758          3.0758          3.0758          0.0000          0.0000          0.0000
   0.4800          3.1415          3.1415          3.1415          0.0000          0.0000          0.0000
   0.5000          3.2053          3.2053          3.2053          0.0000          0.0000          0.0000
   0.5200          3.2674          3.2674          3.2674          0.0000          0.0000          0.0000
   0.5400          3.3278          3.3278          3.3278          0.0000          0.0000          0.0000
   0.5600          3.3866          3.3866          3.3866          0.0000          0.0000          0.0000
   0.5800          3.4437          3.4437          3.4437          0.0000          0.0000          0.0000
   0.6000          3.4991          3.4991          3.4991          0.0000          0.0000          0.0000
   0.6200          3.5531          3.5531          3.5531          0.0000          0.0000          0.0000
   0.6400          3.6054          3.6054          3.6054          0.0000          0.0000          0.0000
   0.6600          3.6562          3.6562          3.6562          0.0000          0.0000          0.0000
   0.6800          3.7055          3.7055          3.7055          0.0000          0.0000          0.0000
   0.7000          3.7533          3.7533          3.7533          0.0000          0.0000          0.0000
   0.7200          3.7996          3.7996          3.7996          0.0000          0.0000          0.0000
   0.7400          3.8444          3.8444          3.8444          0.0000          0.0000          0.0000
   0.7600          3.8878          3.8878          3.8878          0.0000          0.0000          0.0000
   0.7800          3.9296          3.9296          3.9296          0.0000          0.0000          0.0000
   0.8000          3.9700          3.9700          3.9700          0.0000          0.0000          0.0000
   0.8200          4.0090          4.0090          4.0090          0.0000          0.0000          0.0000
   0.8400          4.0464          4.0464          4.0464          0.0000          0.0000          0.0000
   0.8600          4.0825          4.0825          4.0825          0.0000          0.0000          0.0000
   0.8800          4.1170          4.1170          4.1170          0.0000          0.0000          0.0000
   0.9000          4.1501          4.1501          4.1501          0.0000          0.0000          0.0000
   0.9200          4.1817          4.1817          4.1817          0.0000          0.0000          0.0000
   0.9400          4.2119          4.2119          4.2119          0.0000          0.0000          0.0000
   0.9600          4.2406          4.2406          4.2406          0.0000          0.0000          0.0000
   0.9800          4.2677          4.2677          4.2677          0.0000          0.0000          0.0000
   1.0000          4.2934          4.2934          4.2934          0.0000          0.0000          0.0000
   1.0200          4.3177          4.3177          4.3177          0.0000          0.0000          0.0000
   1.0400          4.3403          4.3403          4.3403          0.0000          0.0000          0.0000
   1.0600          4.3615          4.3615          4.3615          0.0000          0.0000          0.0000
   1.0800          4.3812          4.3812          4.3812          0.0000          0.0000          0.0000
   1.1000          4.3993          4.3993          4.3993          0.0000          0.0000          0.0000
   1.1200          4.4159          4.4159          4.4159          0.0000          0.0000          0.0000
   1.1400          4.4309          4.4309          4.4309          0.0000          0.0000          0.0000
   1.1600          4.4444          4.4444          4.4444          0.0000          0.0000          0.0000
   1.1800          4.4564          4.4564          4.4564          0.0000          0.0000          0.0000
   1.2000          4.4669          4.4669          4.4669          0.0000          0.0000          0.0000
   1.2200          4.4760          4.4760          4.4760          0.0000          0.0000          0.0000
   1.2400          4.4838          4.4838          4.4838          0.0000          0.0000          0.0000
   1.2600          4.4905          4.4905          4.4905          0.0000          0.0000          0.0000
   1.2800          4.4962          4.4962          4.4962          0.0000          0.0000          0.0000
   1.3000          4.5014          4.5014          4.5014          0.0000          0.0000          0.0000
   1.3200          4.5065          4.5065          4.5065          0.0000          0.0000          0.0000
   1.3400          4.5119          4.5119          4.5119          0.0000          0.0000          0.0000
   1.3600          4.5183          4.5183          4.5183          0.0000          0.0000          0.0000
   1.3800          4.5262          4.5262          4.5262          0.0000          0.0000          0.0000
   1.4000          4.5360          4.5360          4.5360          0.0000          0.0000          0.0000
   1.4200          4.5481          4.5481          4.5481          0.0000          0.0000          0.0000
   1.4400          4.5622          4.5622          4.5622          0.0000          0.0000          0.0000
   1.4600          4.5780          4.5780          4.5780          0.0000          0.0000          0.0000
   1.4800          4.5943          4.5943          4.5943          0.0000          0.0000          0.0000
   1.5000          4.6099          4.6099          4.6099          0.0000          0.0000          0.0000
   1.5200          4.6234          4.6234          4.6234          0.0000          0.0000          0.0000
   1.5400          4.6333          4.6333          4.6333          0.0000          0.0000          0.0000
   1.5600          4.6385          4.6385          4.6385          0.0000          0.0000          0.0000
   1.5800          4.6384          4.6384          4.6384          0.0000          0.0000          0.0000
   1.6000          4.6329          4.6329          4.6329          0.0000          0.0000          0.0000
   1.6200          4.6229          4.6229          4.6229          0.0000          0.0000          0.0000
   1.6400          4.6096          4.6096          4.6096          0.0000          0.0000          0.0000
   1.6600          4.5947          4.5947          4.5947          0.0000          0.0000          0.0000
   1.6800          4.5800          4.5800          4.5800          0.0000          0.0000          0.0000
   1.7000          4.5674          4.5674          4.5674          0.0000          0.0000          0.0000
   1.7200          4.5581          4.5581          4.5581          0.0000          0.0000          0.0000
   1.7400          4.5530          4.5530          4.5530          0.0000          0.0000          0.0000
   1.7600          4.5526          4.5526          4.5526          0.0000          0.0000          0.0000
   1.7800          4.5568          4.5568          4.5568          0.0000          0.0000          0.0000
   1.8000          4.5656          4.5656          4.5656          0.0000          0.0000          0.0000
   1.8200          4.5786          4.5786          4.5786          0.0000          0.0000          0.0000
   1.8400          4.5958          4.5958          4.5958          0.0000          0.0000          0.0000
   1.8600          4.6169          4.6169          4.6169          0.0000          0.0000          0.0000
   1.8800          4.6421          4.6421          4.6421          0.0000          0.0000          0.0000
   1.9000          4.6711          4.6711          4.6711          0.0000          0.0000          0.0000
   1.9200          4.7038          4.7038          4.7038          0.0000          0.0000          0.0000
   1.9400          4.7399          4.7399          4.7399          0.0000          0.0000          0.0000
   1.9600          4.7790          4.7790          4.7790          0.0000          0.0000          0.0000
   1.9800          4.8207          4.8207          4.8207          0.0000          0.0000          0.0000
   2.0000          4.8647          4.8647          4.8647          0.0000          0.0000          0.0000
   2.0200          4.9108          4.9108          4.9108          0.0000          0.0000          0.0000
   2.0400          4.9590          4.9590          4.9590          0.0000          0.0000          0.0000
   2.0600          5.0097          5.0097          5.0097          0.0000          0.0000          0.0000
   2.0800          5.0635          5.0635          5.0635          0.0000          0.0000          0.0000
   2.1000          5.1215          5.1215          5.1215          0.0000          0.0000          0.0000
   2.1200          5.1850          5.1850          5.1850          0.0000          0.0000          0.0000
   2.1400          5.2553          5.2553          5.2553          0.0000          0.0000          0.0000
   2.1600          5.3335          5.3335          5.3335          0.0000          0.0000          0.0000
   2.1800          5.4202          5.4202          5.4202          0.0000          0.0000          0.0000
   2.2000          5.5148          5.5148          5.5148          0.0000          0.0000          0.0000
   2.2200          5.6155          5.6155          5.6155          0.0000          0.0000          0.0000
   2.2400          5.7194          5.7194          5.7194          0.0000          0.0000          0.0000
   2.2600          5.8230          5.8230          5.8230          0.0000          0.0000          0.0000
   2.2800          5.9222          5.9222          5.9222          0.0000          0.0000          0.0000
   2.3000          6.0133          6.0133          6.0133          0.0000          0.0000          0.0000
   2.3200          6.0934          6.0934          6.0934          0.0000          0.0000          0.0000
   2.3400          6.1605          6.1605          6.1605          0.0000          0.0000          0.0000
   2.3600          6.2133          6.2133          6.2133          0.0000          0.0000          0.0000
   2.3800          6.2518          6.2518          6.2518          0.0000          0.0000          0.0000
   2.4000          6.2764          6.2764          6.2764          0.0000          0.0000          0.0000
   2.4200          6.2883          6.2883          6.2883          0.0000          0.0000          0.0000
   2.4400          6.2896          6.2896          6.2896          0.0000          0.0000          0.0000
   2.4600          6.2829          6.2829          6.2829          0.0000          0.0000          0.0000
   2.4800          6.2716          6.2716          6.2716          0.0000          0.0000          0.0000
   2.5000          6.2596          6.2596          6.2596          0.0000          0.0000          0.0000
   2.5200          6.2509          6.2509          6.2509          0.0000          0.0000          0.0000
   2.5400          6.2492          6.2492          6.2492          0.0000          0.0000          0.0000
   2.5600          6.2576          6.2576          6.2576          0.0000          0.0000          0.0000
   2.5800          6.2783          6.2783          6.2783          0.0000          0.0000          0.0000
   2.6000          6.3122          6.3122          6.3122          0.0000          0.0000          0.0000
   2.6200          6.3596          6.3596          6.3596          0.0000          0.0000          0.0000
   2.6400          6.4196          6.4196          6.4196          0.0000          0.0000          0.0000
   2.6600          6.4911          6.4911          6.4911          0.0000          0.0000          0.0000
   2.6800          6.5722          6.5722          6.5722          0.0000          0.0000          0.0000
   2.7000          6.6606          6.6606          6.6606          0.0000          0.0000          0.0000
   2.7200          6.7534          6.7534          6.7534          0.0000          0.0000          0.0000
   2.7400          6.8476          6.8476          6.8476          0.0000          0.0000          0.0000
   2.7600          6.9396          6.9396          6.9396          0.0000          0.0000          0.0000
   2.7800          7.0258          7.0258          7.0258          0.0000          0.0000          0.0000
   2.8000          7.1028          7.1028          7.1028          0.0000          0.0000          0.0000
   2.8200          7.1677          7.1677          7.1677          0.0000          0.0000          0.0000
   2.8400          7.2183          7.2183          7.2183          0.0000          0.0000          0.0000
   2.8600          7.2536          7.2536          7.2536          0.0000          0.0000          0.0000
   2.8800          7.2738          7.2738          7.2738          0.0000          0.0000          0.0000
   2.9000          7.2807          7.2807          7.2807          0.0000          0.0000          0.0000
   2.9200          7.2769          7.2769          7.2769          0.0000          0.0000          0.0000
   2.9400          7.2663          7.2663          7.2663          0.0000          0.0000          0.0000
   2.9600          7.2533          7.2533          7.2533          0.0000          0.0000          0.0000
   2.9800          7.2423          7.2423          7.2423          0.0000          0.0000          0.0000
   3.0000          7.2369          7.2369          7.2369          0.0000          0.0000          0.0000
   3.0200          7.2401          7.2401          7.2401          0.0000          0.0000          0.0000
   3.0400          7.2532          7.2532          7.2532          0.0000          0.0000          0.0000
   3.0600          7.2763          7.2763          7.2763          0.0000          0.0000          0.0000
   3.0800          7.3080          7.3080          7.3080          0.0000          0.0000          0.0000
   3.1000          7.3464          7.3464          7.3464          0.0000          0.0000          0.0000
   3.1200          7.3889          7.3889          7.3889          0.0000          0.0000          0.0000
   3.1400          7.4331          7.4331          7.4331          0.0000          0.0000          0.0000
   3.1600          7.4766          7.4766          7.4766          0.0000          0.0000          0.0000
   3.1800          7.5178          7.5178          7.5178          0.0000          0.0000          0.0000
   3.2000          7.5556          7.5556          7.5556          0.0000          0.0000          0.0000
   3.2200          7.5898          7.5898          7.5898          0.0000          0.0000          0.0000
   3.2400          7.6210          7.6210          7.6210          0.0000          0.0000          0.0000
   3.2600          7.6507          7.6507          7.6507          0.0000          0.0000          0.0000
   3.2800          7.6813          7.6813          7.6813          0.0000          0.0000          0.0000
   3.3000          7.7156          7.7156          7.7156          0.0000          0.0000          0.0000
   3.3200          7.7562          7.7562          7.7562          0.0000          0.0000          0.0000
   3.3400          7.8051          7.8051          7.8051          0.0000          0.0000          0.0000
   3.3600          7.8625          7.8625          7.8625          0.0000          0.0000          0.0000
   3.3800          7.9271          7.9271          7.9271          0.0000          0.0000          0.0000
   3.4000          7.9959          7.9959          7.9959          0.0000          0.0000          0.0000
   3.4200          8.0652          8.0652          8.0652          0.0000          0.0000          0.0000
   3.4400          8.1312          8.1312          8.1312          0.0000          0.0000          0.0000
   3.4600          8.1910          8.1910          8.1910          0.0000          0.0000          0.0000
   3.4800          8.2437          8.2437          8.2437          0.0000          0.0000          0.0000
   3.5000          8.2897          8.2897          8.2897          0.0000          0.0000          0.0000
   3.5200          8.3315          8.3315          8.3315          0.0000          0.0000          0.0000
   3.5400          8.3723          8.3723          8.3723          0.0000          0.0000          0.0000
   3.5600          8.4151          8.4151          8.4151          0.0000          0.0000          0.0000
   3.5800          8.4621          8.4621          8.4621          0.0000          0.0000          0.0000
   3.6000          8.5138          8.5138          8.5138          0.0000          0.0000          0.0000
   3.6200          8.5691          8.5691          8.5691          0.0000          0.0000          0.0000
   3.6400          8.6250          8.6250          8.6250          0.0000          0.0000          0.0000
   3.6600          8.6777          8.6777          8.6777          0.0000          0.0000          0.0000
   3.6800          8.7230          8.7230          8.7230          0.0000          0.0000          0.0000
   3.7000          8.7574          8.7574          8.7574          0.0000          0.0000          0.0000
   3.7200          8.7785          8.7785          8.7785          0.0000          0.0000          0.0000
   3.7400          8.7857          8.7857          8.7857          0.0000          0.0000          0.0000
   3.7600          8.7803          8.7803          8.7803          0.0000          0.0000          0.0000
   3.7800          8.7648          8.7648          8.7648          0.0000          0.0000          0.0000
   3.8000          8.7426          8.7426          8.7426          0.0000          0.0000          0.0000
   3.8200          8.7173          8.7173          8.7173          0.0000          0.0000          0.0000
   3.8400          8.6914          8.6914          8.6914          0.0000          0.0000          0.0000
   3.8600          8.6670          8.6670          8.6670          0.0000          0.0000          0.0000
   3.8800          8.6455          8.6455          8.6455          0.0000          0.0000          0.0000
   3.9000          8.6282          8.6282          8.6282          0.0000          0.0000          0.0000
   3.9200          8.6170          8.6170          8.6170          0.0000          0.0000          0.0000
   3.9400          8.6147          8.6147          8.6147          0.0000          0.0000          0.0000
   3.9600          8.6242          8.6242          8.6242          0.0000          0.0000          0.0000
   3.9800          8.6485          8.6485          8.6485          0.0000          0.0000          0.0000
   4.0000          8.6889          8.6889          8.6889          0.0000          0.0000          0.0000
   4.0200          8.7444          8.7444          8.7444          0.0000          0.0000          0.0000
   4.0400          8.8117          8.8117          8.8117          0.0000          0.0000          0.0000
   4.0600          8.8849          8.8849          8.8849          0.0000          0.0000          0.0000
   4.0800          8.9571          8.9571          8.9571          0.0000          0.0000          0.0000
   4.1000          9.0214          9.0214          9.0214          0.0000          0.0000          0.0000
   4.1200          9.0719          9.0719          9.0719          0.0000          0.0000          0.0000
   4.1400          9.1051          9.1051          9.1051          0.0000          0.0000          0.0000
   4.1600          9.1195          9.1195          9.1195          0.0000          0.0000          0.0000
   4.1800          9.1163          9.1163          9.1163          0.0000          0.0000          0.0000
   4.2000          9.0979          9.0979          9.0979          0.0000          0.0000          0.0000
   4.2200          9.0681          9.0681          9.0681          0.0000          0.0000          0.0000
   4.2400          9.0307          9.0307          9.0307          0.0000          0.0000          0.0000
   4.2600          8.9894          8.9894          8.9894          0.0000          0.0000          0.0000
   4.2800          8.9472          8.9472          8.9472          0.0000          0.0000          0.0000
   4.3000          8.9067          8.9067          8.9067          0.0000          0.0000          0.0000
   4.3200          8.8700          8.8700          8.8700          0.0000          0.0000          0.0000
   4.3400          8.8387          8.8387          8.8387          0.0000          0.0000          0.0000
   4.3600          8.8142          8.8142          8.8142          0.0000          0.0000          0.0000
   4.3800          8.7973          8.7973          8.7973          0.0000          0.0000          0.0000
   4.4000          8.7884          8.7884          8.7884          0.0000          0.0000          0.0000
   4.4200          8.7871          8.7871          8.7871          0.0000          0.0000          0.0000
   4.4400          8.7923          8.7923          8.7923          0.0000          0.0000          0.0000
   4.4600          8.8022          8.8022          8.8022          0.0000          0.0000          0.0000
   4.4800          8.8145          8.8145          8.8145          0.0000          0.0000          0.0000
   4.5000          8.8264          8.8264          8.8264          0.0000          0.0000          0.0000
   4.5200          8.8357          8.8357          8.8357          0.0000          0.0000          0.0000
   4.5400          8.8401          8.8401          8.8401          0.0000          0.0000          0.0000
   4.5600          8.8384          8.8384          8.8384          0.0000          0.0000          0.0000
   4.5800          8.8298          8.8298          8.8298          0.0000          0.0000          0.0000
   4.6000          8.8148          8.8148          8.8148          0.0000          0.0000          0.0000
   4.6200          8.7942          8.7942          8.7942          0.0000          0.0000          0.0000
   4.6400          8.7696          8.7696          8.7696          0.0000          0.0000          0.0000
   4.6600          8.7424          8.7424          8.7424          0.0000          0.0000          0.0000
   4.6800          8.7147          8.7147          8.7147          0.0000          0.0000          0.0000
   4.7000          8.6882          8.6882          8.6882          0.0000          0.0000          0.0000
   4.7200          8.6650          8.6650          8.6650          0.0000          0.0000          0.0000
   4.7400          8.6470          8.6470          8.6470          0.0000          0.0000          0.0000
   4.7600          8.6361          8.6361          8.6361          0.0000          0.0000          0.0000
   4.7800          8.6336          8.6336          8.6336          0.0000          0.0000          0.0000
   4.8000          8.6402          8.6402          8.6402          0.0000          0.0000          0.0000
   4.8200          8.6552          8.6552          8.6552          0.0000          0.0000          0.0000
   4.8400          8.6771          8.6771          8.6771          0.0000          0.0000          0.0000
   4.8600          8.7033          8.7033          8.7033          0.0000          0.0000          0.0000
   4.8800          8.7310          8.7310          8.7310          0.0000          0.0000          0.0000
   4.9000          8.7573          8.7573          8.7573          0.0000          0.0000          0.0000
   4.9200          8.7805          8.7805          8.7805          0.0000          0.0000          0.0000
   4.9400          8.7999          8.7999          8.7999          0.0000          0.0000          0.0000
   4.9600          8.8158          8.8158          8.8158          0.0000          0.0000          0.0000
   4.9800          8.8298          8.8298          8.8298          0.0000          0.0000          0.0000
   5.0000          8.8434          8.8434          8.8434          0.0000          0.0000          0.0000
   5.0200          8.8581          8.8581          8.8581          0.0000          0.0000          0.0000
   5.0400          8.8745          8.8745          8.8745          0.0000          0.0000          0.0000
   5.0600          8.8924          8.8924          8.8924          0.0000          0.0000          0.0000
   5.0800          8.9105          8.9105          8.9105          0.0000          0.0000          0.0000
   5.1000          8.9275          8.9275          8.9275          0.0000          0.0000          0.0000
   5.1200          8.9421          8.9421          8.9421          0.0000          0.0000          0.0000
   5.1400          8.9538          8.9538          8.9538          0.0000          0.0000          0.0000
   5.1600          8.9631          8.9631          8.9631          0.0000          0.0000          0.0000
   5.1800          8.9711          8.9711          8.9711          0.0000          0.0000          0.0000
   5.2000          8.9795          8.9795          8.9795          0.0000          0.0000          0.0000
   5.2200          8.9899          8.9899          8.9899          0.0000          0.0000          0.0000
   5.2400          9.0031          9.0031          9.0031          0.0000          0.0000          0.0000
   5.2600          9.0192          9.0192          9.0192          0.0000          0.0000          0.0000
   5.2800          9.0377          9.0377          9.0377          0.0000          0.0000          0.0000
   5.3000          9.0571          9.0571          9.0571          0.0000          0.0000          0.0000
   5.3200          9.0761          9.0761          9.0761          0.0000          0.0000          0.0000
   5.3400          9.0934          9.0934          9.0934          0.0000          0.0000          0.0000
   5.3600          9.1084          9.1084          9.1084          0.0000          0.0000          0.0000
   5.3800          9.1212          9.1212          9.1212          0.0000          0.0000          0.0000
   5.4000          9.1326          9.1326          9.1326          0.0000          0.0000          0.0000
   5.4200          9.1435          9.1435          9.1435          0.0000          0.0000          0.0000
   5.4400          9.1549          9.1549          9.1549          0.0000          0.0000          0.0000
   5.4600          9.1673          9.1673          9.1673          0.0000          0.0000          0.0000
   5.4800          9.1808          9.1808          9.1808          0.0000          0.0000          0.0000
   5.5000          9.1944          9.1944          9.1944          0.0000          0.0000          0.0000
   5.5200          9.2067          9.2067          9.2067          0.0000          0.0000          0.0000
   5.5400          9.2162          9.2162          9.2162          0.0000          0.0000          0.0000
   5.5600          9.2210          9.2210          9.2210          0.0000          0.0000          0.0000
   5.5800          9.2196          9.2196          9.2196          0.0000          0.0000          0.0000
   5.6000          9.2112          9.2112          9.2112          0.0000          0.0000          0.0000
   5.6200          9.1953          9.1953          9.1953          0.0000          0.0000          0.0000
   5.6400          9.1723          9.1723          9.1723          0.0000          0.0000          0.0000
   5.6600          9.1432          9.1432          9.1432          0.0000          0.0000          0.0000
   5.6800          9.1095          9.1095          9.1095          0.0000          0.0000          0.0000
   5.7000          9.0731          9.0731          9.0731          0.0000          0.0000          0.0000
   5.7200          9.0364          9.0364          9.0364          0.0000          0.0000          0.0000
   5.7400          9.0017          9.0017          9.0017          0.0000          0.0000          0.0000
   5.7600          8.9713          8.9713          8.9713          0.0000          0.0000          0.0000
   5.7800          8.9470          8.9470          8.9470          0.0000          0.0000          0.0000
   5.8000          8.9301          8.9301          8.9301          0.0000          0.0000          0.0000
   5.8200          8.9206          8.9206          8.9206          0.0000          0.0000          0.0000
   5.8400          8.9179          8.9179          8.9179          0.0000          0.0000          0.0000
   5.8600          8.9207          8.9207          8.9207          0.0000          0.0000          0.0000
   5.8800          8.9277          8.9277          8.9277          0.0000          0.0000          0.0000
   5.9000          8.9376          8.9376          8.9376          0.0000          0.0000          0.0000
   5.9200          8.9501          8.9501          8.9501          0.0000          0.0000          0.0000
   5.9400          8.9651          8.9651          8.9651          0.0000          0.0000          0.0000
   5.9600          8.9833          8.9833          8.9833          0.0000          0.0000          0.0000
   5.9800          9.0053          9.0053          9.0053          0.0000          0.0000          0.0000
   6.0000          9.0310          9.0310          9.0310          0.0000          0.0000          0.0000
   6.0200          9.0600          9.0600          9.0600          0.0000          0.0000          0.0000
   6.0400          9.0905          9.0905          9.0905          0.0000          0.0000          0.0000
   6.0600          9.1204          9.1204          9.1204          0.0000          0.0000          0.0000
   6.0800          9.1473          9.1473          9.1473          0.0000          0.0000          0.0000
   6.1000          9.1694          9.1694          9.1694          0.0000          0.0000          0.0000
   6.1200          9.1858          9.1858          9.1858          0.0000          0.0000          0.0000
   6.1400          9.1972          9.1972          9.1972          0.0000          0.0000          0.0000
   6.1600          9.2055          9.2055          9.2055          0.0000          0.0000          0.0000
   6.1800          9.2135          9.2135          9.2135          0.0000          0.0000          0.0000
   6.2000          9.2246          9.2246          9.2246          0.0000          0.0000          0.0000
   6.2200          9.2416          9.2416          9.2416          0.0000          0.0000          0.0000
   6.2400          9.2665          9.2665          9.2665          0.0000          0.0000          0.0000
   6.2600          9.3001          9.3001          9.3001          0.0000          0.0000          0.0000
   6.2800          9.3423          9.3423          9.3423          0.0000          0.0000          0.0000
   6.3000          9.3923          9.3923          9.3923          0.0000          0.0000          0.0000
   6.3200          9.4498          9.4498          9.4498          0.0000          0.0000          0.0000
   6.3400          9.5152          9.5152          9.5152          0.0000          0.0000          0.0000
   6.3600          9.5896          9.5896          9.5896          0.0000          0.0000          0.0000
   6.3800          9.6755          9.6755          9.6755          0.0000          0.0000          0.0000
   6.4000          9.7754          9.7754          9.7754          0.0000          0.0000          0.0000
   6.4200          9.8916          9.8916          9.8916          0.0000          0.0000          0.0000
   6.4400         10.0251         10.0251         10.0251          0.0000          0.0000          0.0000
   6.4600         10.1753         10.1753         10.1753          0.0000          0.0000          0.0000
   6.4800         10.3393         10.3393         10.3393          0.0000          0.0000          0.0000
   6.5000         10.5124         10.5124         10.5124          0.0000          0.0000          0.0000
   6.5200         10.6884         10.6884         10.6884          0.0000          0.0000          0.0000
   6.5400         10.8600         10.8600         10.8600          0.0000          0.0000          0.0000
   6.5600         11.0204         11.0204         11.0204          0.0000          0.0000          0.0000
   6.5800         11.1637         11.1637         11.1637          0.0000          0.0000          0.0000
   6.6000         11.2858         11.2858         11.2858          0.0000          0.0000          0.0000
   6.6200         11.3847         11.3847         11.3847          0.0000          0.0000          0.0000
   6.6400         11.4609         11.4609         11.4609          0.0000          0.0000          0.0000
   6.6600         11.5163         11.5163         11.5163          0.0000          0.0000          0.0000
   6.6800         11.5542         11.5542         11.5542          0.0000          0.0000          0.0000
   6.7000         11.5783         11.5783         11.5783          0.0000          0.0000          0.0000
   6.7200         11.5920         11.5920         11.5920          0.0000          0.0000          0.0000
   6.7400         11.5983         11.5983         11.5983          0.0000          0.0000          0.0000
   6.7600         11.5999         11.5999         11.5999          0.0000          0.0000          0.0000
   6.7800         11.5998         11.5998         11.5998          0.0000          0.0000          0.0000
   6.8000         11.6009         11.6009         11.6009          0.0000          0.0000          0.0000
   6.8200         11.6063         11.6063         11.6063          0.0000          0.0000          0.0000
   6.8400         11.6190         11.6190         11.6190          0.0000          0.0000          0.0000
   6.8600         11.6412         11.6412         11.6412          0.0000          0.0000          0.0000
   6.8800         11.6737         11.6737         11.6737          0.0000          0.0000          0.0000
   6.9000         11.7159         11.7159         11.7159          0.0000          0.0000          0.0000
   6.9200         11.7659         11.7659         11.7659          0.0000          0.0000          0.0000
   6.9400         11.8209         11.8209         11.8209          0.0000          0.0000          0.0000
   6.9600         11.8776         11.8776         11.8776          0.0000          0.0000          0.0000
   6.9800         11.9328         11.9328         11.9328          0.0000          0.0000          0.0000
   7.0000         11.9842         11.9842         11.9842          0.0000          0.0000          0.0000
   7.0200         12.0297         12.0297         12.0297          0.0000          0.0000          0.0000
   7.0400         12.0685         12.0685         12.0685          0.0000          0.0000          0.0000
   7.0600         12.1000         12.1000         12.1000          0.0000          0.0000          0.0000
   7.0800         12.1247         12.1247         12.1247          0.0000          0.0000          0.0000
   7.1000         12.1435         12.1435         12.1435          0.0000          0.0000          0.0000
   7.1200         12.1575         12.1575         12.1575          0.0000          0.0000          0.0000
   7.1400         12.1683         12.1683         12.1683          0.0000          0.0000          0.0000
   7.1600         12.1772         12.1772         12.1772          0.0000          0.0000          0.0000
   7.1800         12.1849         12.1849         12.1849          0.0000          0.0000          0.0000
   7.2000         12.1921         12.1921         12.1921          0.0000          0.0000          0.0000
   7.2200         12.1989         12.1989         12.1989          0.0000          0.0000          0.0000
   7.2400         12.2056         12.2056         12.2056          0.0000          0.0000          0.0000
   7.2600         12.2129         12.2129         12.2129          0.0000          0.0000          0.0000
   7.2800         12.2220         12.2220         12.2220          0.0000          0.0000          0.0000
   7.3000         12.2347         12.2347         12.2347          0.0000          0.0000          0.0000
   7.3200         12.2529         12.2529         12.2529          0.0000          0.0000          0.0000
   7.3400         12.2785         12.2785         12.2785          0.0000          0.0000          0.0000
   7.3600         12.3125         12.3125         12.3125          0.0000          0.0000          0.0000
   7.3800         12.3553         12.3553         12.3553          0.0000          0.0000          0.0000
   7.4000         12.4064         12.4064         12.4064          0.0000          0.0000          0.0000
   7.4200         12.4650         12.4650         12.4650          0.0000          0.0000          0.0000
   7.4400         12.5300         12.5300         12.5300          0.0000          0.0000          0.0000
   7.4600         12.6002         12.6002         12.6002          0.0000          0.0000          0.0000
   7.4800         12.6749         12.6749         12.6749          0.0000          0.0000          0.0000
   7.5000         12.7532         12.7532         12.7532          0.0000          0.0000          0.0000
   7.5200         12.8342         12.8342         12.8342          0.0000          0.0000          0.0000
   7.5400         12.9167         12.9167         12.9167          0.0000          0.0000          0.0000
   7.5600         12.9992         12.9992         12.9992          0.0000          0.0000          0.0000
   7.5800         13.0802         13.0802         13.0802          0.0000          0.0000          0.0000
   7.6000         13.1575         13.1575         13.1575          0.0000          0.0000          0.0000
   7.6200         13.2294         13.2294         13.2294          0.0000          0.0000          0.0000
   7.6400         13.2941         13.2941         13.2941          0.0000          0.0000          0.0000
   7.6600         13.3501         13.3501         13.3501          0.0000          0.0000          0.0000
   7.6800         13.3964         13.3964         13.3964          0.0000          0.0000          0.0000
   7.7000         13.4326         13.4326         13.4326          0.0000          0.0000          0.0000
   7.7200         13.4589         13.4589         13.4589          0.0000          0.0000          0.0000
   7.7400         13.4761         13.4761         13.4761          0.0000          0.0000          0.0000
   7.7600         13.4857         13.4857         13.4857          0.0000          0.0000          0.0000
   7.7800         13.4896         13.4896         13.4896          0.0000          0.0000          0.0000
   7.8000         13.4904         13.4904         13.4904          0.0000          0.0000          0.0000
   7.8200         13.4907         13.4907         13.4907          0.0000          0.0000          0.0000
   7.8400         13.4927         13.4927         13.4927          0.0000          0.0000          0.0000
   7.8600         13.4981         13.4981         13.4981          0.0000          0.0000          0.0000
   7.8800         13.5076         13.5076         13.5076          0.0000          0.0000          0.0000
   7.9000         13.5207         13.5207         13.5207          0.0000          0.0000          0.0000
   7.9200         13.5359         13.5359         13.5359          0.0000          0.0000          0.0000
   7.9400         13.5513         13.5513         13.5513          0.0000          0.0000          0.0000
   7.9600         13.5645         13.5645         13.5645          0.0000          0.0000          0.0000
   7.9800         13.5741         13.5741         13.5741          0.0000          0.0000          0.0000
   8.0000         13.5792         13.5792         13.5792          0.0000          0.0000          0.0000
   8.0200         13.5803         13.5803         13.5803          0.0000          0.0000          0.0000
   8.0400         13.5789         13.5789         13.5789          0.0000          0.0000          0.0000
   8.0600         13.5772         13.5772         13.5772          0.0000          0.0000          0.0000
   8.0800         13.5780         13.5780         13.5780          0.0000          0.0000          0.0000
   8.1000         13.5837         13.5837         13.5837          0.0000          0.0000          0.0000
   8.1200         13.5961         13.5961         13.5961          0.0000          0.0000          0.0000
   8.1400         13.6158         13.6158         13.6158          0.0000          0.0000          0.0000
   8.1600         13.6421         13.6421         13.6421          0.0000          0.0000          0.0000
   8.1800         13.6731         13.6731         13.6731          0.0000          0.0000          0.0000
   8.2000         13.7063         13.7063         13.7063          0.0000          0.0000          0.0000
   8.2200         13.7382         13.7382         13.7382          0.0000          0.0000          0.0000
   8.2400         13.7658         13.7658         13.7658          0.0000          0.0000          0.0000
   8.2600         13.7863         13.7863         13.7863          0.0000          0.0000          0.0000
   8.2800         13.7980         13.7980         13.7980          0.0000          0.0000          0.0000
   8.3000         13.7997         13.7997         13.7997          0.0000          0.0000          0.0000
   8.3200         13.7918         13.7918         13.7918          0.0000          0.0000          0.0000
   8.3400         13.7752         13.7752         13.7752          0.0000          0.0000          0.0000
   8.3600         13.7513         13.7513         13.7513          0.0000          0.0000          0.0000
   8.3800         13.7225         13.7225         13.7225          0.0000          0.0000          0.0000
   8.4000         13.6912         13.6912         13.6912          0.0000          0.0000          0.0000
   8.4200         13.6603         13.6603         13.6603          0.0000          0.0000          0.0000
   8.4400         13.6333         13.6333         13.6333          0.0000          0.0000          0.0000
   8.4600         13.6136         13.6136         13.6136          0.0000          0.0000          0.0000
   8.4800         13.6046         13.6046         13.6046          0.0000          0.0000          0.0000
   8.5000         13.6091         13.6091         13.6091          0.0000          0.0000          0.0000
   8.5200         13.6288         13.6288         13.6288          0.0000          0.0000          0.0000
   8.5400         13.6643         13.6643         13.6643          0.0000          0.0000          0.0000
   8.5600         13.7149         13.7149         13.7149          0.0000          0.0000          0.0000
   8.5800         13.7788         13.7788         13.7788          0.0000          0.0000          0.0000
   8.6000         13.8534         13.8534         13.8534          0.0000          0.0000          0.0000
   8.6200         13.9359         13.9359         13.9359          0.0000          0.0000          0.0000
   8.6400         14.0231         14.0231         14.0231          0.0000          0.0000          0.0000
   8.6600         14.1118         14.1118         14.1118          0.0000          0.0000          0.0000
   8.6800         14.1986         14.1986         14.1986          0.0000          0.0000          0.0000
   8.7000         14.2800         14.2800         14.2800          0.0000          0.0000          0.0000
   8.7200         14.3525         14.3525         14.3525          0.0000          0.0000          0.0000
   8.7400         14.4129         14.4129         14.4129          0.0000          0.0000          0.0000
   8.7600         14.4587         14.4587         14.4587          0.0000          0.0000          0.0000
   8.7800         14.4887         14.4887         14.4887          0.0000          0.0000          0.0000
   8.8000         14.5028         14.5028         14.5028          0.0000          0.0000          0.0000
   8.8200         14.5026         14.5026         14.5026          0.0000          0.0000          0.0000
   8.8400         14.4910         14.4910         14.4910          0.0000          0.0000          0.0000
   8.8600         14.4713         14.4713         14.4713          0.0000          0.0000          0.0000
   8.8800         14.4472         14.4472         14.4472          0.0000          0.0000          0.0000
   8.9000         14.4222         14.4222         14.4222          0.0000          0.0000          0.0000
   8.9200         14.3987         14.3987         14.3987          0.0000          0.0000          0.0000
   8.9400         14.3786         14.3786         14.3786          0.0000          0.0000          0.0000
   8.9600         14.3630         14.3630         14.3630          0.0000          0.0000          0.0000
   8.9800         14.3525         14.3525         14.3525          0.0000          0.0000          0.0000
   9.0000         14.3473         14.3473         14.3473          0.0000          0.0000          0.0000
   9.0200         14.3476         14.3476         14.3476          0.0000          0.0000          0.0000
   9.0400         14.3538         14.3538         14.3538          0.0000          0.0000          0.0000
   9.0600         14.3657         14.3657         14.3657          0.0000          0.0000          0.0000
   9.0800         14.3832         14.3832         14.3832          0.0000          0.0000          0.0000
   9.1000         14.4060         14.4060         14.4060          0.0000          0.0000          0.0000
   9.1200         14.4331         14.4331         14.4331          0.0000          0.0000          0.0000
   9.1400         14.4631         14.4631         14.4631          0.0000          0.0000          0.0000
   9.1600         14.4939         14.4939         14.4939          0.0000          0.0000          0.0000
   9.1800         14.5229         14.5229         14.5229          0.0000          0.0000          0.0000
   9.2000         14.5469         14.5469         14.5469          0.0000          0.0000          0.0000
   9.2200         14.5626         14.5626         14.5626          0.0000          0.0000          0.0000
   9.2400         14.5672         14.5672         14.5672          0.0000          0.0000          0.0000
   9.2600         14.5586         14.5586         14.5586          0.0000          0.0000          0.0000
   9.2800         14.5363         14.5363         14.5363          0.0000          0.0000          0.0000
   9.3000         14.5014         14.5014         14.5014          0.0000          0.0000          0.0000
   9.3200         14.4564         14.4564         14.4564          0.0000          0.0000          0.0000
   9.3400         14.4052         14.4052         14.4052          0.0000          0.0000          0.0000
   9.3600         14.3521         14.3521         14.3521          0.0000          0.0000          0.0000
   9.3800         14.3013         14.3013         14.3013          0.0000          0.0000          0.0000
   9.4000         14.2567         14.2567         14.2567          0.0000          0.0000          0.0000
   9.4200         14.2213         14.2213         14.2213          0.0000          0.0000          0.0000
   9.4400         14.1975         14.1975         14.1975          0.0000          0.0000          0.0000
   9.4600         14.1868         14.1868         14.1868          0.0000          0.0000          0.0000
   9.4800         14.1901         14.1901         14.1901          0.0000          0.0000          0.0000
   9.5000         14.2070         14.2070         14.2070          0.0000          0.0000          0.0000
   9.5200         14.2362         14.2362         14.2362          0.0000          0.0000          0.0000
   9.5400         14.2748         14.2748         14.2748          0.0000          0.0000          0.0000
   9.5600         14.3187         14.3187         14.3187          0.0000          0.0000          0.0000
   9.5800         14.3626         14.3626         14.3626          0.0000          0.0000          0.0000
   9.6000         14.4011         14.4011         14.4011          0.0000          0.0000          0.0000
   9.6200         14.4289         14.4289         14.4289          0.0000          0.0000          0.0000
   9.6400         14.4421         14.4421         14.4421          0.0000          0.0000          0.0000
   9.6600         14.4380         14.4380         14.4380          0.0000          0.0000          0.0000
   9.6800         14.4157         14.4157         14.4157          0.0000          0.0000          0.0000
   9.7000         14.3761         14.3761         14.3761          0.0000          0.0000          0.0000
   9.7200         14.3214         14.3214         14.3214          0.0000          0.0000          0.0000
   9.7400         14.2549         14.2549         14.2549          0.0000          0.0000          0.0000
   9.7600         14.1807         14.1807         14.1807          0.0000          0.0000          0.0000
   9.7800         14.1030         14.1030         14.1030          0.0000          0.0000          0.0000
   9.8000         14.0263         14.0263         14.0263          0.0000          0.0000          0.0000
   9.8200         13.9545         13.9545         13.9545          0.0000          0.0000          0.0000
   9.8400         13.8909         13.8909         13.8909          0.0000          0.0000          0.0000
   9.8600         13.8379         13.8379         13.8379          0.0000          0.0000          0.0000
   9.8800         13.7970         13.7970         13.7970          0.0000          0.0000          0.0000
   9.9000         13.7684         13.7684         13.7684          0.0000          0.0000          0.0000
   9.9200         13.7519         13.7519         13.7519          0.0000          0.0000          0.0000
   9.9400         13.7465         13.7465         13.7465          0.0000          0.0000          0.0000
   9.9600         13.7512         13.7512         13.7512          0.0000          0.0000          0.0000
   9.9800         13.7649         13.7649         13.7649          0.0000          0.0000          0.0000
  10.0000         13.7863         13.7863         13.7863          0.0000          0.0000          0.0000
  10.0200         13.8141         13.8141         13.8141          0.0000          0.0000          0.0000
  10.0400         13.8461         13.8461         13.8461          0.0000          0.0000          0.0000
  10.0600         13.8793         13.8793         13.8793          0.0000          0.0000          0.0000
  10.0800         13.9103         13.9103         13.9103          0.0000          0.0000          0.0000
  10.1000         13.9350         13.9350         13.9350          0.0000          0.0000          0.0000
  10.1200         13.9494         13.9494         13.9494          0.0000          0.0000          0.0000
  10.1400         13.9498         13.9498         13.9498          0.0000          0.0000          0.0000
  10.1600         13.9337         13.9337         13.9337          0.0000          0.0000          0.0000
  10.1800         13.8997         13.8997         13.8997          0.0000          0.0000          0.0000
  10.2000         13.8478         13.8478         13.8478          0.0000          0.0000          0.0000
  10.2200         13.7797         13.7797         13.7797          0.0000          0.0000          0.0000
  10.2400         13.6986         13.6986         13.6986          0.0000          0.0000          0.0000
  10.2600         13.6088         13.6088         13.6088          0.0000          0.0000          0.0000
  10.2800         13.5154         13.5154         13.5154          0.0000          0.0000          0.0000
  10.3000         13.4243         13.4243         13.4243          0.0000          0.0000          0.0000
  10.3200         13.3409         13.3409         13.3409          0.0000          0.0000          0.0000
  10.3400         13.2703         13.2703         13.2703          0.0000          0.0000          0.0000
  10.3600         13.2164         13.2164         13.2164          0.0000          0.0000          0.0000
  10.3800         13.1819         13.1819         13.1819          0.0000          0.0000          0.0000
  10.4000         13.1675         13.1675         13.1675          0.0000          0.0000          0.0000
  10.4200         13.1723         13.1723         13.1723          0.0000          0.0000          0.0000
  10.4400         13.1939         13.1939         13.1939          0.0000          0.0000          0.0000
  10.4600         13.2283         13.2283         13.2283          0.0000          0.0000          0.0000
  10.4800         13.2710         13.2710         13.2710          0.0000          0.0000          0.0000
  10.5000         13.3171         13.3171         13.3171          0.0000          0.0000          0.0000
  10.5200         13.3626         13.3626         13.3626          0.0000          0.0000          0.0000
  10.5400         13.4043         13.4043         13.4043          0.0000          0.0000          0.0000
  10.5600         13.4407         13.4407         13.4407          0.0000          0.0000          0.0000
  10.5800         13.4719         13.4719         13.4719          0.0000          0.0000          0.0000
  10.6000         13.4993         13.4993         13.4993          0.0000          0.0000          0.0000
  10.6200         13.5257         13.5257         13.5257          0.0000          0.0000          0.0000
  10.6400         13.5537         13.5537         13.5537          0.0000          0.0000          0.0000
  10.6600         13.5853         13.5853         13.5853          0.0000          0.0000          0.0000
  10.6800         13.6213         13.6213         13.6213          0.0000          0.0000          0.0000
  10.7000         13.6603         13.6603         13.6603          0.0000          0.0000          0.0000
  10.7200         13.6995         13.6995         13.6995          0.0000          0.0000          0.0000
  10.7400         13.7349         13.7349         13.7349          0.0000          0.0000          0.0000
  10.7600         13.7625         13.7625         13.7625          0.0000          0.0000          0.0000
  10.7800         13.7791         13.7791         13.7791          0.0000          0.0000          0.0000
  10.8000         13.7832         13.7832         13.7832          0.0000          0.0000          0.0000
  10.8200         13.7756         13.7756         13.7756          0.0000          0.0000          0.0000
  10.8400         13.7587         13.7587         13.7587          0.0000          0.0000          0.0000
  10.8600         13.7362         13.7362         13.7362          0.0000          0.0000          0.0000
  10.8800         13.7117         13.7117         13.7117          0.0000          0.0000          0.0000
  10.9000         13.6881         13.6881         13.6881          0.0000          0.0000          0.0000
  10.9200         13.6663         13.6663         13.6663          0.0000          0.0000          0.0000
  10.9400         13.6459         13.6459         13.6459          0.0000          0.0000          0.0000
  10.9600         13.6254         13.6254         13.6254          0.0000          0.0000          0.0000
  10.9800         13.6028         13.6028         13.6028          0.0000          0.0000          0.0000
  11.0000         13.5770         13.5770         13.5770          0.0000          0.0000          0.0000
  11.0200         13.5479         13.5479         13.5479          0.0000          0.0000          0.0000
  11.0400         13.5170         13.5170         13.5170          0.0000          0.0000          0.0000
  11.0600         13.4863         13.4863         13.4863          0.0000          0.0000          0.0000
  11.0800         13.4584         13.4584         13.4584          0.0000          0.0000          0.0000
  11.1000         13.4349         13.4349         13.4349          0.0000          0.0000          0.0000
  11.1200         13.4164         13.4164         13.4164          0.0000          0.0000          0.0000
  11.1400         13.4016         13.4016         13.4016          0.0000          0.0000          0.0000
  11.1600         13.3883         13.3883         13.3883          0.0000          0.0000          0.0000
  11.1800         13.3733         13.3733         13.3733          0.0000          0.0000          0.0000
  11.2000         13.3533         13.3533         13.3533          0.0000          0.0000          0.0000
  11.2200         13.3257         13.3257         13.3257          0.0000          0.0000          0.0000
  11.2400         13.2896         13.2896         13.2896          0.0000          0.0000          0.0000
  11.2600         13.2455         13.2455         13.2455          0.0000          0.0000          0.0000
  11.2800         13.1958         13.1958         13.1958          0.0000          0.0000          0.0000
  11.3000         13.1443         13.1443         13.1443          0.0000          0.0000          0.0000
  11.3200         13.0959         13.0959         13.0959          0.0000          0.0000          0.0000
  11.3400         13.0558         13.0558         13.0558          0.0000          0.0000          0.0000
  11.3600         13.0287         13.0287         13.0287          0.0000          0.0000          0.0000
  11.3800         13.0188         13.0188         13.0188          0.0000          0.0000          0.0000
  11.4000         13.0288         13.0288         13.0288          0.0000          0.0000          0.0000
  11.4200         13.0599         13.0599         13.0599          0.0000          0.0000          0.0000
  11.4400         13.1116         13.1116         13.1116          0.0000          0.0000          0.0000
  11.4600         13.1814         13.1814         13.1814          0.0000          0.0000          0.0000
  11.4800         13.2654         13.2654         13.2654          0.0000          0.0000          0.0000
  11.5000         13.3585         13.3585         13.3585          0.0000          0.0000          0.0000
  11.5200         13.4555         13.4555         13.4555          0.0000          0.0000          0.0000
  11.5400         13.5516         13.5516         13.5516          0.0000          0.0000          0.0000
  11.5600         13.6435         13.6435         13.6435          0.0000          0.0000          0.0000
  11.5800         13.7299         13.7299         13.7299          0.0000          0.0000          0.0000
  11.6000         13.8114         13.8114         13.8114          0.0000          0.0000          0.0000
  11.6200         13.8903         13.8903         13.8903          0.0000          0.0000          0.0000
  11.6400         13.9697         13.9697         13.9697          0.0000          0.0000          0.0000
  11.6600         14.0527         14.0527         14.0527          0.0000          0.0000          0.0000
  11.6800         14.1410         14.1410         14.1410          0.0000          0.0000          0.0000
  11.7000         14.2346         14.2346         14.2346          0.0000          0.0000          0.0000
  11.7200         14.3320         14.3320         14.3320          0.0000          0.0000          0.0000
  11.7400         14.4300         14.4300         14.4300          0.0000          0.0000          0.0000
  11.7600         14.5252         14.5252         14.5252          0.0000          0.0000          0.0000
  11.7800         14.6146         14.6146         14.6146          0.0000          0.0000          0.0000
  11.8000         14.6962         14.6962         14.6962          0.0000          0.0000          0.0000
  11.8200         14.7693         14.7693         14.7693          0.0000          0.0000          0.0000
  11.8400         14.8341         14.8341         14.8341          0.0000          0.0000          0.0000
  11.8600         14.8912         14.8912         14.8912          0.0000          0.0000          0.0000
  11.8800         14.9407         14.9407         14.9407          0.0000          0.0000          0.0000
  11.9000         14.9816         14.9816         14.9816          0.0000          0.0000          0.0000
  11.9200         15.0125         15.0125         15.0125          0.0000          0.0000          0.0000
  11.9400         15.0313         15.0313         15.0313          0.0000          0.0000          0.0000
  11.9600         15.0362         15.0362         15.0362          0.0000          0.0000          0.0000
  11.9800         15.0267         15.0267         15.0267          0.0000          0.0000          0.0000
  12.0000         15.0037         15.0037         15.0037          0.0000          0.0000          0.0000
  12.0200         14.9697         14.9697         14.9697          0.0000          0.0000          0.0000
  12.0400         14.9285         14.9285         14.9285          0.0000          0.0000          0.0000
  12.0600         14.8843         14.8843         14.8843          0.0000          0.0000          0.0000
  12.0800         14.8410         14.8410         14.8410          0.0000          0.0000          0.0000
  12.1000         14.8014         14.8014         14.8014          0.0000          0.0000          0.0000
  12.1200         14.7668         14.7668         14.7668          0.0000          0.0000          0.0000
  12.1400         14.7369         14.7369         14.7369          0.0000          0.0000          0.0000
  12.1600         14.7107         14.7107         14.7107          0.0000          0.0000          0.0000
  12.1800         14.6866         14.6866         14.6866          0.0000          0.0000          0.0000
  12.2000         14.6630         14.6630         14.6630          0.0000          0.0000          0.0000
  12.2200         14.6397         14.6397         14.6397          0.0000          0.0000          0.0000
  12.2400         14.6176         14.6176         14.6176          0.0000          0.0000          0.0000
  12.2600         14.5987         14.5987         14.5987          0.0000          0.0000          0.0000
  12.2800         14.5862         14.5862         14.5862          0.0000          0.0000          0.0000
  12.3000         14.5834         14.5834         14.5834          0.0000          0.0000          0.0000
  12.3200         14.5934         14.5934         14.5934          0.0000          0.0000          0.0000
  12.3400         14.6178         14.6178         14.6178          0.0000          0.0000          0.0000
  12.3600         14.6565         14.6565         14.6565          0.0000          0.0000          0.0000
  12.3800         14.7076         14.7076         14.7076          0.0000          0.0000          0.0000
  12.4000         14.7674         14.7674         14.7674          0.0000          0.0000          0.0000
  12.4200         14.8312         14.8312         14.8312          0.0000          0.0000          0.0000
  12.4400         14.8937         14.8937         14.8937          0.0000          0.0000          0.0000
  12.4600         14.9500         14.9500         14.9500          0.0000          0.0000          0.0000
  12.4800         14.9959         14.9959         14.9959          0.0000          0.0000          0.0000
  12.5000         15.0287         15.0287         15.0287          0.0000          0.0000          0.0000
  12.5200         15.0475         15.0475         15.0475          0.0000          0.0000          0.0000
  12.5400         15.0529         15.0529         15.0529          0.0000          0.0000          0.0000
  12.5600         15.0473         15.0473         15.0473          0.0000          0.0000          0.0000
  12.5800         15.0340         15.0340         15.0340          0.0000          0.0000          0.0000
  12.6000         15.0162         15.0162         15.0162          0.0000          0.0000          0.0000
  12.6200         14.9970         14.9970         14.9970          0.0000          0.0000          0.0000
  12.6400         14.9780         14.9780         14.9780          0.0000          0.0000          0.0000
  12.6600         14.9598         14.9598         14.9598          0.0000          0.0000          0.0000
  12.6800         14.9421         14.9421         14.9421          0.0000          0.0000          0.0000
  12.7000         14.9240         14.9240         14.9240          0.0000          0.0000          0.0000
  12.7200         14.9050         14.9050         14.9050          0.0000          0.0000          0.0000
  12.7400         14.8853         14.8853         14.8853          0.0000          0.0000          0.0000
  12.7600         14.8665         14.8665         14.8665          0.0000          0.0000          0.0000
  12.7800         14.8509         14.8509         14.8509          0.0000          0.0000          0.0000
  12.8000         14.8419         14.8419         14.8419          0.0000          0.0000          0.0000
  12.8200         14.8428         14.8428         14.8428          0.0000          0.0000          0.0000
  12.8400         14.8564         14.8564         14.8564          0.0000          0.0000          0.0000
  12.8600         14.8843         14.8843         14.8843          0.0000          0.0000          0.0000
  12.8800         14.9267         14.9267         14.9267          0.0000          0.0000          0.0000
  12.9000         14.9819         14.9819         14.9819          0.0000          0.0000          0.0000
  12.9200         15.0473         15.0473         15.0473          0.0000          0.0000          0.0000
  12.9400         15.1193         15.1193         15.1193          0.0000          0.0000          0.0000
  12.9600         15.1942         15.1942         15.1942          0.0000          0.0000          0.0000
  12.9800         15.2694         15.2694         15.2694          0.0000          0.0000          0.0000
  13.0000         15.3436         15.3436         15.3436          0.0000          0.0000          0.0000
  13.0200         15.4171         15.4171         15.4171          0.0000          0.0000          0.0000
  13.0400         15.4919         15.4919         15.4919          0.0000          0.0000          0.0000
  13.0600         15.5712         15.5712         15.5712          0.0000          0.0000          0.0000
  13.0800         15.6582         15.6582         15.6582          0.0000          0.0000          0.0000
  13.1000         15.7553         15.7553         15.7553          0.0000          0.0000          0.0000
  13.1200         15.8634         15.8634         15.8634          0.0000          0.0000          0.0000
  13.1400         15.9809         15.9809         15.9809          0.0000          0.0000          0.0000
  13.1600         16.1041         16.1041         16.1041          0.0000          0.0000          0.0000
  13.1800         16.2278         16.2278         16.2278          0.0000          0.0000          0.0000
  13.2000         16.3452         16.3452         16.3452          0.0000          0.0000          0.0000
  13.2200         16.4497         16.4497         16.4497          0.0000          0.0000          0.0000
  13.2400         16.5350         16.5350         16.5350          0.0000          0.0000          0.0000
  13.2600         16.5960         16.5960         16.5960          0.0000          0.0000          0.0000
  13.2800         16.6292         16.6292         16.6292          0.0000          0.0000          0.0000
  13.3000         16.6332         16.6332         16.6332          0.0000          0.0000          0.0000
  13.3200         16.6086         16.6086         16.6086          0.0000          0.0000          0.0000
  13.3400         16.5584         16.5584         16.5584          0.0000          0.0000          0.0000
  13.3600         16.4874         16.4874         16.4874          0.0000          0.0000          0.0000
  13.3800         16.4022         16.4022         16.4022          0.0000          0.0000          0.0000
  13.4000         16.3103         16.3103         16.3103          0.0000          0.0000          0.0000
  13.4200         16.2197         16.2197         16.2197          0.0000          0.0000          0.0000
  13.4400         16.1379         16.1379         16.1379          0.0000          0.0000          0.0000
  13.4600         16.0713         16.0713         16.0713          0.0000          0.0000          0.0000
  13.4800         16.0240         16.0240         16.0240          0.0000          0.0000          0.0000
  13.5000         15.9980         15.9980         15.9980          0.0000          0.0000          0.0000
  13.5200         15.9924         15.9924         15.9924          0.0000          0.0000          0.0000
  13.5400         16.0037         16.0037         16.0037          0.0000          0.0000          0.0000
  13.5600         16.0266         16.0266         16.0266          0.0000          0.0000          0.0000
  13.5800         16.0548         16.0548         16.0548          0.0000          0.0000          0.0000
  13.6000         16.0822         16.0822         16.0822          0.0000          0.0000          0.0000
  13.6200         16.1038         16.1038         16.1038          0.0000          0.0000          0.0000
  13.6400         16.1170         16.1170         16.1170          0.0000          0.0000          0.0000
  13.6600         16.1215         16.1215         16.1215          0.0000          0.0000          0.0000
  13.6800         16.1197         16.1197         16.1197          0.0000          0.0000          0.0000
  13.7000         16.1161         16.1161         16.1161          0.0000          0.0000          0.0000
  13.7200         16.1161         16.1161         16.1161          0.0000          0.0000          0.0000
  13.7400         16.1252         16.1252         16.1252          0.0000          0.0000          0.0000
  13.7600         16.1478         16.1478         16.1478          0.0000          0.0000          0.0000
  13.7800         16.1861         16.1861         16.1861          0.0000          0.0000          0.0000
  13.8000         16.2401         16.2401         16.2401          0.0000          0.0000          0.0000
  13.8200         16.3074         16.3074         16.3074          0.0000          0.0000          0.0000
  13.8400         16.3842         16.3842         16.3842          0.0000          0.0000          0.0000
  13.8600         16.4664         16.4664         16.4664          0.0000          0.0000          0.0000
  13.8800         16.5501         16.5501         16.5501          0.0000          0.0000          0.0000
  13.9000         16.6323         16.6323         16.6323          0.0000          0.0000          0.0000
  13.9200         16.7115         16.7115         16.7115          0.0000          0.0000          0.0000
  13.9400         16.7866         16.7866         16.7866          0.0000          0.0000          0.0000
  13.9600         16.8573         16.8573         16.8573          0.0000          0.0000          0.0000
  13.9800         16.9226         16.9226         16.9226          0.0000          0.0000          0.0000
  14.0000         16.9812         16.9812         16.9812          0.0000          0.0000          0.0000
  14.0200         17.0311         17.0311         17.0311          0.0000          0.0000          0.0000
  14.0400         17.0700         17.0700         17.0700          0.0000          0.0000          0.0000
  14.0600         17.0959         17.0959         17.0959          0.0000          0.0000          0.0000
  14.0800         17.1073         17.1073         17.1073          0.0000          0.0000          0.0000
  14.1000         17.1039         17.1039         17.1039          0.0000          0.0000          0.0000
  14.1200         17.0863         17.0863         17.0863          0.0000          0.0000          0.0000
  14.1400         17.0558         17.0558         17.0558          0.0000          0.0000          0.0000
  14.1600         17.0143         17.0143         17.0143          0.0000          0.0000          0.0000
  14.1800         16.9632         16.9632         16.9632          0.0000          0.0000          0.0000
  14.2000         16.9039         16.9039         16.9039          0.0000          0.0000          0.0000
  14.2200         16.8367         16.8367         16.8367          0.0000          0.0000          0.0000
  14.2400         16.7616         16.7616         16.7616          0.0000          0.0000          0.0000
  14.2600         16.6778         16.6778         16.6778          0.0000          0.0000          0.0000
  14.2800         16.5845         16.5845         16.5845          0.0000          0.0000          0.0000
  14.3000         16.4809         16.4809         16.4809          0.0000          0.0000          0.0000
  14.3200         16.3670         16.3670         16.3670          0.0000          0.0000          0.0000
  14.3400         16.2437         16.2437         16.2437          0.0000          0.0000          0.0000
  14.3600         16.1143         16.1143         16.1143          0.0000          0.0000          0.0000
  14.3800         15.9839         15.9839         15.9839          0.0000          0.0000          0.0000
  14.4000         15.8594         15.8594         15.8594          0.0000          0.0000          0.0000
  14.4200         15.7494         15.7494         15.7494          0.0000          0.0000          0.0000
  14.4400         15.6623         15.6623         15.6623          0.0000          0.0000          0.0000
  14.4600         15.6057         15.6057         15.6057          0.0000          0.0000          0.0000
  14.4800         15.5849         15.5849         15.5849          0.0000          0.0000          0.0000
  14.5000         15.6024         15.6024         15.6024          0.0000          0.0000          0.0000
  14.5200         15.6579         15.6579         15.6579          0.0000          0.0000          0.0000
  14.5400         15.7489         15.7489         15.7489          0.0000          0.0000          0.0000
  14.5600         15.8710         15.8710         15.8710          0.0000          0.0000          0.0000
  14.5800         16.0190         16.0190         16.0190          0.0000          0.0000          0.0000
  14.6000         16.1867         16.1867         16.1867          0.0000          0.0000          0.0000
  14.6200         16.3673         16.3673         16.3673          0.0000          0.0000          0.0000
  14.6400         16.5538         16.5538         16.5538          0.0000          0.0000          0.0000
  14.6600         16.7388         16.7388         16.7388          0.0000          0.0000          0.0000
  14.6800         16.9151         16.9151         16.9151          0.0000          0.0000          0.0000
  14.7000         17.0762         17.0762         17.0762          0.0000          0.0000          0.0000
  14.7200         17.2167         17.2167         17.2167          0.0000          0.0000          0.0000
  14.7400         17.3330         17.3330         17.3330          0.0000          0.0000          0.0000
  14.7600         17.4233         17.4233         17.4233          0.0000          0.0000          0.0000
  14.7800         17.4880         17.4880         17.4880          0.0000          0.0000          0.0000
  14.8000         17.5285         17.5285         17.5285          0.0000          0.0000          0.0000
  14.8200         17.5476         17.5476         17.5476          0.0000          0.0000          0.0000
  14.8400         17.5482         17.5482         17.5482          0.0000          0.0000          0.0000
  14.8600         17.5331         17.5331         17.5331          0.0000          0.0000          0.0000
  14.8800         17.5046         17.5046         17.5046          0.0000          0.0000          0.0000
  14.9000         17.4640         17.4640         17.4640          0.0000          0.0000          0.0000
  14.9200         17.4116         17.4116         17.4116          0.0000          0.0000          0.0000
  14.9400         17.3473         17.3473         17.3473          0.0000          0.0000          0.0000
  14.9600         17.2708         17.2708         17.2708          0.0000          0.0000          0.0000
  14.9800         17.1820         17.1820         17.1820          0.0000          0.0000          0.0000
  15.0000         17.0818         17.0818         17.0818          0.0000          0.0000          0.0000
  15.0200         16.9723         16.9723         16.9723          0.0000          0.0000          0.0000
  15.0400         16.8570         16.8570         16.8570          0.0000          0.0000          0.0000
  15.0600         16.7401         16.7401         16.7401          0.0000          0.0000          0.0000
  15.0800         16.6263         16.6263         16.6263          0.0000          0.0000          0.0000
  15.1000         16.5200         16.5200         16.5200          0.0000          0.0000          0.0000
  15.1200         16.4242         16.4242         16.4242          0.0000          0.0000          0.0000
  15.1400         16.3409         16.3409         16.3409          0.0000          0.0000          0.0000
  15.1600         16.2699         16.2699         16.2699          0.0000          0.0000          0.0000
  15.1800         16.2101         16.2101         16.2101          0.0000          0.0000          0.0000
  15.2000         16.1595         16.1595         16.1595          0.0000          0.0000          0.0000
  15.2200         16.1160         16.1160         16.1160          0.0000          0.0000          0.0000
  15.2400         16.0784         16.0784         16.0784          0.0000          0.0000          0.0000
  15.2600         16.0466         16.0466         16.0466          0.0000          0.0000          0.0000
  15.2800         16.0221         16.0221         16.0221          0.0000          0.0000          0.0000
  15.3000         16.0073         16.0073         16.0073          0.0000          0.0000          0.0000
  15.3200         16.0051         16.0051         16.0051          0.0000          0.0000          0.0000
  15.3400         16.0184         16.0184         16.0184          0.0000          0.0000          0.0000
  15.3600         16.0489         16.0489         16.0489          0.0000          0.0000          0.0000
  15.3800         16.0966         16.0966         16.0966          0.0000          0.0000          0.0000
  15.4000         16.1597         16.1597         16.1597          0.0000          0.0000          0.0000
  15.4200         16.2342         16.2342         16.2342          0.0000          0.0000          0.0000
  15.4400         16.3145         16.3145         16.3145          0.0000          0.0000          0.0000
  15.4600         16.3942         16.3942         16.3942          0.0000          0.0000          0.0000
  15.4800         16.4671         16.4671         16.4671          0.0000          0.0000          0.0000
  15.5000         16.5288         16.5288         16.5288          0.0000          0.0000          0.0000
  15.5200         16.5769         16.5769         16.5769          0.0000          0.0000          0.0000
  15.5400         16.6116         16.6116         16.6116          0.0000          0.0000          0.0000
  15.5600         16.6353         16.6353         16.6353          0.0000          0.0000          0.0000
  15.5800         16.6518         16.6518         16.6518          0.0000          0.0000          0.0000
  15.6000         16.6650         16.6650         16.6650          0.0000          0.0000          0.0000
  15.6200         16.6780         16.6780         16.6780          0.0000          0.0000          0.0000
  15.6400         16.6925         16.6925         16.6925          0.0000          0.0000          0.0000
  15.6600         16.7091         16.7091         16.7091          0.0000          0.0000          0.0000
  15.6800         16.7273         16.7273         16.7273          0.0000          0.0000          0.0000
  15.7000         16.7467         16.7467         16.7467          0.0000          0.0000          0.0000
  15.7200         16.7670         16.7670         16.7670          0.0000          0.0000          0.0000
  15.7400         16.7888         16.7888         16.7888          0.0000          0.0000          0.0000
  15.7600         16.8133         16.8133         16.8133          0.0000          0.0000          0.0000
  15.7800         16.8425         16.8425         16.8425          0.0000          0.0000          0.0000
  15.8000         16.8780         16.8780         16.8780          0.0000          0.0000          0.0000
  15.8200         16.9213         16.9213         16.9213          0.0000          0.0000          0.0000
  15.8400         16.9729         16.9729         16.9729          0.0000          0.0000          0.0000
  15.8600         17.0318         17.0318         17.0318          0.0000          0.0000          0.0000
  15.8800         17.0961         17.0961         17.0961          0.0000          0.0000          0.0000
  15.9000         17.1624         17.1624         17.1624          0.0000          0.0000          0.0000
  15.9200         17.2264         17.2264         17.2264          0.0000          0.0000          0.0000
  15.9400         17.2838         17.2838         17.2838          0.0000          0.0000          0.0000
  15.9600         17.3307         17.3307         17.3307          0.0000          0.0000          0.0000
  15.9800         17.3640         17.3640         17.3640          0.0000          0.0000          0.0000
  16.0000         17.3829         17.3829         17.3829          0.0000          0.0000          0.0000
  16.0200         17.3883         17.3883         17.3883          0.0000          0.0000          0.0000
  16.0400         17.3837         17.3837         17.3837          0.0000          0.0000          0.0000
  16.0600         17.3741         17.3741         17.3741          0.0000          0.0000          0.0000
  16.0800         17.3657         17.3657         17.3657          0.0000          0.0000          0.0000
  16.1000         17.3644         17.3644         17.3644          0.0000          0.0000          0.0000
  16.1200         17.3744         17.3744         17.3744          0.0000          0.0000          0.0000
  16.1400         17.3970         17.3970         17.3970          0.0000          0.0000          0.0000
  16.1600         17.4301         17.4301         17.4301          0.0000          0.0000          0.0000
  16.1800         17.4683         17.4683         17.4683          0.0000          0.0000          0.0000
  16.2000         17.5041         17.5041         17.5041          0.0000          0.0000          0.0000
  16.2200         17.5291         17.5291         17.5291          0.0000          0.0000          0.0000
  16.2400         17.5356         17.5356         17.5356          0.0000          0.0000          0.0000
  16.2600         17.5179         17.5179         17.5179          0.0000          0.0000          0.0000
  16.2800         17.4737         17.4737         17.4737          0.0000          0.0000          0.0000
  16.3000         17.4040         17.4040         17.4040          0.0000          0.0000          0.0000
  16.3200         17.3135         17.3135         17.3135          0.0000          0.0000          0.0000
  16.3400         17.2095         17.2095         17.2095          0.0000          0.0000          0.0000
  16.3600         17.1005         17.1005         17.1005          0.0000          0.0000          0.0000
  16.3800         16.9953         16.9953         16.9953          0.0000          0.0000          0.0000
  16.4000         16.9007         16.9007         16.9007          0.0000          0.0000          0.0000
  16.4200         16.8208         16.8208         16.8208          0.0000          0.0000          0.0000
  16.4400         16.7571         16.7571         16.7571          0.0000          0.0000          0.0000
  16.4600         16.7081         16.7081         16.7081          0.0000          0.0000          0.0000
  16.4800         16.6712         16.6712         16.6712          0.0000          0.0000          0.0000
  16.5000         16.6432         16.6432         16.6432          0.0000          0.0000          0.0000
  16.5200         16.6222         16.6222         16.6222          0.0000          0.0000          0.0000
  16.5400         16.6074         16.6074         16.6074          0.0000          0.0000          0.0000
  16.5600         16.6000         16.6000         16.6000          0.0000          0.0000          0.0000
  16.5800         16.6020         16.6020         16.6020          0.0000          0.0000          0.0000
  16.6000         16.6160         16.6160         16.6160          0.0000          0.0000          0.0000
  16.6200         16.6439         16.6439         16.6439          0.0000          0.0000          0.0000
  16.6400         16.6865         16.6865         16.6865          0.0000          0.0000          0.0000
  16.6600         16.7435         16.7435         16.7435          0.0000          0.0000          0.0000
  16.6800         16.8135         16.8135         16.8135          0.0000          0.0000          0.0000
  16.7000         16.8949         16.8949         16.8949          0.0000          0.0000          0.0000
  16.7200         16.9861         16.9861         16.9861          0.0000          0.0000          0.0000
  16.7400         17.0863         17.0863         17.0863          0.0000          0.0000          0.0000
  16.7600         17.1953         17.1953         17.1953          0.0000          0.0000          0.0000
  16.7800         17.3135         17.3135         17.3135          0.0000          0.0000          0.0000
  16.8000         17.4414         17.4414         17.4414          0.0000          0.0000          0.0000
  16.8200         17.5788         17.5788         17.5788          0.0000          0.0000          0.0000
  16.8400         17.7246         17.7246         17.7246          0.0000          0.0000          0.0000
  16.8600         17.8757         17.8757         17.8757          0.0000          0.0000          0.0000
  16.8800         18.0275         18.0275         18.0275          0.0000          0.0000          0.0000
  16.9000         18.1735         18.1735         18.1735          0.0000          0.0000          0.0000
  16.9200         18.3056         18.3056         18.3056          0.0000          0.0000          0.0000
  16.9400         18.4152         18.4152         18.4152          0.0000          0.0000          0.0000
  16.9600         18.4943         18.4943         18.4943          0.0000          0.0000          0.0000
  16.9800         18.5363         18.5363         18.5363          0.0000          0.0000          0.0000
  17.0000         18.5371         18.5371         18.5371          0.0000          0.0000          0.0000
  17.0200         18.4965         18.4965         18.4965          0.0000          0.0000          0.0000
  17.0400         18.4176         18.4176         18.4176          0.0000          0.0000          0.0000
  17.0600         18.3074         18.3074         18.3074          0.0000          0.0000          0.0000
  17.0800         18.1753         18.1753         18.1753          0.0000          0.0000          0.0000
  17.1000         18.0323         18.0323         18.0323          0.0000          0.0000          0.0000
  17.1200         17.8894         17.8894         17.8894          0.0000          0.0000          0.0000
  17.1400         17.7559         17.7559         17.7559          0.0000          0.0000          0.0000
  17.1600         17.6388         17.6388         17.6388          0.0000          0.0000          0.0000
  17.1800         17.5418         17.5418         17.5418          0.0000          0.0000          0.0000
  17.2000         17.4661         17.4661         17.4661          0.0000          0.0000          0.0000
  17.2200         17.4103         17.4103         17.4103          0.0000          0.0000          0.0000
  17.2400         17.3719         17.3719         17.3719          0.0000          0.0000          0.0000
  17.2600         17.3480         17.3480         17.3480          0.0000          0.0000          0.0000
  17.2800         17.3359         17.3359         17.3359          0.0000          0.0000          0.0000
  17.3000         17.3336         17.3336         17.3336          0.0000          0.0000          0.0000
  17.3200         17.3397         17.3397         17.3397          0.0000          0.0000          0.0000
  17.3400         17.3533         17.3533         17.3533          0.0000          0.0000          0.0000
  17.3600         17.3731         17.3731         17.3731          0.0000          0.0000          0.0000
  17.3800         17.3972         17.3972         17.3972          0.0000          0.0000          0.0000
  17.4000         17.4226         17.4226         17.4226          0.0000          0.0000          0.0000
  17.4200         17.4458         17.4458         17.4458          0.0000          0.0000          0.0000
  17.4400         17.4628         17.4628         17.4628          0.0000          0.0000          0.0000
  17.4600         17.4701         17.4701         17.4701          0.0000          0.0000          0.0000
  17.4800         17.4655         17.4655         17.4655          0.0000          0.0000          0.0000
  17.5000         17.4487         17.4487         17.4487          0.0000          0.0000          0.0000
  17.5200         17.4211         17.4211         17.4211          0.0000          0.0000          0.0000
  17.5400         17.3864         17.3864         17.3864          0.0000          0.0000          0.0000
  17.5600         17.3495         17.3495         17.3495          0.0000          0.0000          0.0000
  17.5800         17.3164         17.3164         17.3164          0.0000          0.0000          0.0000
  17.6000         17.2931         17.2931         17.2931          0.0000          0.0000          0.0000
  17.6200         17.2854         17.2854         17.2854          0.0000          0.0000          0.0000
  17.6400         17.2974         17.2974         17.2974          0.0000          0.0000          0.0000
  17.6600         17.3318         17.3318         17.3318          0.0000          0.0000          0.0000
  17.6800         17.3893         17.3893         17.3893          0.0000          0.0000          0.0000
  17.7000         17.4682         17.4682         17.4682          0.0000          0.0000          0.0000
  17.7200         17.5649         17.5649         17.5649          0.0000          0.0000          0.0000
  17.7400         17.6740         17.6740         17.6740          0.0000          0.0000          0.0000
  17.7600         17.7892         17.7892         17.7892          0.0000          0.0000          0.0000
  17.7800         17.9038         17.9038         17.9038          0.0000          0.0000          0.0000
  17.8000         18.0111         18.0111         18.0111          0.0000          0.0000          0.0000
  17.8200         18.1058         18.1058         18.1058          0.0000          0.0000          0.0000
  17.8400         18.1838         18.1838         18.1838          0.0000          0.0000          0.0000
  17.8600         18.2431         18.2431         18.2431          0.0000          0.0000          0.0000
  17.8800         18.2836         18.2836         18.2836          0.0000          0.0000          0.0000
  17.9000         18.3072         18.3072         18.3072          0.0000          0.0000          0.0000
  17.9200         18.3171         18.3171         18.3171          0.0000          0.0000          0.0000
  17.9400         18.3174         18.3174         18.3174          0.0000          0.0000          0.0000
  17.9600         18.3118         18.3118         18.3118          0.0000          0.0000          0.0000
  17.9800         18.3035         18.3035         18.3035          0.0000          0.0000          0.0000
  18.0000         18.2940         18.2940         18.2940          0.0000          0.0000          0.0000
  18.0200         18.2838         18.2838         18.2838          0.0000          0.0000          0.0000
  18.0400         18.2722         18.2722         18.2722          0.0000          0.0000          0.0000
  18.0600         18.2584         18.2584         18.2584          0.0000          0.0000          0.0000
  18.0800         18.2419         18.2419         18.2419          0.0000          0.0000          0.0000
  18.1000         18.2231         18.2231         18.2231          0.0000          0.0000          0.0000
  18.1200         18.2035         18.2035         18.2035          0.0000          0.0000          0.0000
  18.1400         18.1852         18.1852         18.1852          0.0000          0.0000          0.0000
  18.1600         18.1702         18.1702         18.1702          0.0000          0.0000          0.0000
  18.1800         18.1604         18.1604         18.1604          0.0000          0.0000          0.0000
  18.2000         18.1561         18.1561         18.1561          0.0000          0.0000          0.0000
  18.2200         18.1568         18.1568         18.1568          0.0000          0.0000          0.0000
  18.2400         18.1607         18.1607         18.1607          0.0000          0.0000          0.0000
  18.2600         18.1654         18.1654         18.1654          0.0000          0.0000          0.0000
  18.2800         18.1688         18.1688         18.1688          0.0000          0.0000          0.0000
  18.3000         18.1694         18.1694         18.1694          0.0000          0.0000          0.0000
  18.3200         18.1666         18.1666         18.1666          0.0000          0.0000          0.0000
  18.3400         18.1607         18.1607         18.1607          0.0000          0.0000          0.0000
  18.3600         18.1523         18.1523         18.1523          0.0000          0.0000          0.0000
  18.3800         18.1424         18.1424         18.1424          0.0000          0.0000          0.0000
  18.4000         18.1312         18.1312         18.1312          0.0000          0.0000          0.0000
  18.4200         18.1193         18.1193         18.1193          0.0000          0.0000          0.0000
  18.4400         18.1071         18.1071         18.1071          0.0000          0.0000          0.0000
  18.4600         18.0954         18.0954         18.0954          0.0000          0.0000          0.0000
  18.4800         18.0859         18.0859         18.0859          0.0000          0.0000          0.0000
  18.5000         18.0808         18.0808         18.0808          0.0000          0.0000          0.0000
  18.5200         18.0823         18.0823         18.0823          0.0000          0.0000          0.0000
  18.5400         18.0922         18.0922         18.0922          0.0000          0.0000          0.0000
  18.5600         18.1111         18.1111         18.1111          0.0000          0.0000          0.0000
  18.5800         18.1381         18.1381         18.1381          0.0000          0.0000          0.0000
  18.6000         18.1716         18.1716         18.1716          0.0000          0.0000          0.0000
  18.6200         18.2091         18.2091         18.2091          0.0000          0.0000          0.0000
  18.6400         18.2489         18.2489         18.2489          0.0000          0.0000          0.0000
  18.6600         18.2902         18.2902         18.2902          0.0000          0.0000          0.0000
  18.6800         18.3341         18.3341         18.3341          0.0000          0.0000          0.0000
  18.7000         18.3834         18.3834         18.3834          0.0000          0.0000          0.0000
  18.7200         18.4422         18.4422         18.4422          0.0000          0.0000          0.0000
  18.7400         18.5155         18.5155         18.5155          0.0000          0.0000          0.0000
  18.7600         18.6082         18.6082         18.6082          0.0000          0.0000          0.0000
  18.7800         18.7252         18.7252         18.7252          0.0000          0.0000          0.0000
  18.8000         18.8704         18.8704         18.8704          0.0000          0.0000          0.0000
  18.8200         19.0479         19.0479         19.0479          0.0000          0.0000          0.0000
  18.8400         19.2607         19.2607         19.2607          0.0000          0.0000          0.0000
  18.8600         19.5117         19.5117         19.5117          0.0000          0.0000          0.0000
  18.8800         19.8028         19.8028         19.8028          0.0000          0.0000          0.0000
  18.9000         20.1339         20.1339         20.1339          0.0000          0.0000          0.0000
  18.9200         20.5028         20.5028         20.5028          0.0000          0.0000          0.0000
  18.9400         20.9042         20.9042         20.9042          0.0000          0.0000          0.0000
  18.9600         21.3297         21.3297         21.3297          0.0000          0.0000          0.0000
  18.9800         21.7682         21.7682         21.7682          0.0000          0.0000          0.0000
  19.0000         22.2072         22.2072         22.2072          0.0000          0.0000          0.0000
  19.0200         22.6335         22.6335         22.6335          0.0000          0.0000          0.0000
  19.0400         23.0349         23.0349         23.0349          0.0000          0.0000          0.0000
  19.0600         23.4015         23.4015         23.4015          0.0000          0.0000          0.0000
  19.0800         23.7261         23.7261         23.7261          0.0000          0.0000          0.0000
  19.1000         24.0047         24.0047         24.0047          0.0000          0.0000          0.0000
  19.1200         24.2365         24.2365         24.2365          0.0000          0.0000          0.0000
  19.1400         24.4238         24.4238         24.4238          0.0000          0.0000          0.0000
  19.1600         24.5705         24.5705         24.5705          0.0000          0.0000          0.0000
  19.1800         24.6825         24.6825         24.6825          0.0000          0.0000          0.0000
  19.2000         24.7664         24.7664         24.7664          0.0000          0.0000          0.0000
  19.2200         24.8294         24.8294         24.8294          0.0000          0.0000          0.0000
  19.2400         24.8788         24.8788         24.8788          0.0000          0.0000          0.0000
  19.2600         24.9220         24.9220         24.9220          0.0000          0.0000          0.0000
  19.2800         24.9665         24.9665         24.9665          0.0000          0.0000          0.0000
  19.3000         25.0192         25.0192         25.0192          0.0000          0.0000          0.0000
  19.3200         25.0861         25.0861         25.0861          0.0000          0.0000          0.0000
  19.3400         25.1720         25.1720         25.1720          0.0000          0.0000          0.0000
  19.3600         25.2796         25.2796         25.2796          0.0000          0.0000          0.0000
  19.3800         25.4092         25.4092         25.4092          0.0000          0.0000          0.0000
  19.4000         25.5589         25.5589         25.5589          0.0000          0.0000          0.0000
  19.4200         25.7246         25.7246         25.7246          0.0000          0.0000          0.0000
  19.4400         25.9016         25.9016         25.9016          0.0000          0.0000          0.0000
  19.4600         26.0849         26.0849         26.0849          0.0000          0.0000          0.0000
  19.4800         26.2707         26.2707         26.2707          0.0000          0.0000          0.0000
  19.5000         26.4569         26.4569         26.4569          0.0000          0.0000          0.0000
  19.5200         26.6435         26.6435         26.6435          0.0000          0.0000          0.0000
  19.5400         26.8320         26.8320         26.8320          0.0000          0.0000          0.0000
  19.5600         27.0245         27.0245         27.0245          0.0000          0.0000          0.0000
  19.5800         27.2235         27.2235         27.2235          0.0000          0.0000          0.0000
  19.6000         27.4303         27.4303         27.4303          0.0000          0.0000          0.0000
  19.6200         27.6456         27.6456         27.6456          0.0000          0.0000          0.0000
  19.6400         27.8696         27.8696         27.8696          0.0000          0.0000          0.0000
  19.6600         28.1025         28.1025         28.1025          0.0000          0.0000          0.0000
  19.6800         28.3457         28.3457         28.3457          0.0000          0.0000          0.0000
  19.7000         28.6017         28.6017         28.6017          0.0000          0.0000          0.0000
  19.7200         28.8741         28.8741         28.8741          0.0000          0.0000          0.0000
  19.7400         29.1672         29.1672         29.1672          0.0000          0.0000          0.0000
  19.7600         29.4844         29.4844         29.4844          0.0000          0.0000          0.0000
  19.7800         29.8272         29.8272         29.8272          0.0000          0.0000          0.0000
  19.8000         30.1949         30.1949         30.1949          0.0000          0.0000          0.0000
  19.8200         30.5835         30.5835         30.5835          0.0000          0.0000          0.0000
  19.8400         30.9868         30.9868         30.9868          0.0000          0.0000          0.0000
  19.8600         31.3971         31.3971         31.3971          0.0000          0.0000          0.0000
  19.8800         31.8060         31.8060         31.8060          0.0000          0.0000          0.0000
  19.9000         32.2047         32.2047         32.2047          0.0000          0.0000          0.0000
  19.9200         32.5834         32.5834         32.5834          0.0000          0.0000          0.0000
  19.9400         32.9286         32.9286         32.9286          0.0000          0.0000          0.0000
  19.9600         33.2199         33.2199         33.2199          0.0000          0.0000          0.0000
  19.9800         33.4252         33.4252         33.4252          0.0000          0.0000          0.0000
  20.0000         33.5038         33.5038         33.5038          0.0000          0.0000          0.0000
