### imag part of conductivity (in units of 10^15 sec^-1)
   0.0000          3.2898          3.2898          3.2898          0.0000          0.0000          0.0000
   0.0200          3.3135          3.3135          3.3135          0.0000          0.0000          0.0000
   0.0400          3.3372          3.3372          3.3372          0.0000          0.0000          0.0000
   0.0600          3.3608          3.3608          3.3608          0.0000          0.0000          0.0000
   0.0800          3.3843          3.3843          3.3843          0.0000          0.0000          0.0000
   0.1000          3.4077          3.4077          3.4077          0.0000          0.0000          0.0000
   0.1200          3.4309          3.4309          3.4309          0.0000          0.0000          0.0000
   0.1400          3.4539          3.4539          3.4539          0.0000          0.0000          0.0000
   0.1600          3.4767          3.4767          3.4767          0.0000          0.0000          0.0000
   0.1800          3.4993          3.4993          3.4993          0.0000          0.0000          0.0000
   0.2000          3.5216          3.5216          3.5216          0.0000          0.0000          0.0000
   0.2200          3.5435          3.5435          3.5435          0.0000          0.0000          0.0000
   0.2400          3.5652          3.5652          3.5652          0.0000          0.0000          0.0000
   0.2600          3.5864          3.5864          3.5864          0.0000          0.0000          0.0000
   0.2800          3.6073          3.6073          3.6073          0.0000          0.0000          0.0000
   0.3000          3.6277          3.6277          3.6277          0.0000          0.0000          0.0000
   0.3200          3.6477          3.6477          3.6477          0.0000          0.0000          0.0000
   0.3400          3.6672          3.6672          3.6672          0.0000          0.0000          0.0000
   0.3600          3.6862          3.6862          3.6862          0.0000          0.0000          0.0000
   0.3800          3.7047          3.7047          3.7047          0.0000          0.0000          0.0000
   0.4000          3.7226          3.7226          3.7226          0.0000          0.0000          0.0000
   0.4200          3.7400          3.7400          3.7400          0.0000          0.0000          0.0000
   0.4400          3.7567          3.7567          3.7567          0.0000          0.0000          0.0000
   0.4600          3.7729          3.7729          3.7729          0.0000          0.0000          0.0000
   0.4800          3.7883          3.7883          3.7883          0.0000          0.0000          0.0000
   0.5000          3.8031          3.8031          3.8031          0.0000          0.0000          0.0000
   0.5200          3.8172          3.8172          3.8172          0.0000          0.0000          0.0000
   0.5400          3.8306          3.8306          3.8306          0.0000          0.0000          0.0000
   0.5600          3.8433          3.8433          3.8433          0.0000          0.0000          0.0000
   0.5800          3.8552          3.8552          3.8552          0.0000          0.0000          0.0000
   0.6000          3.8664          3.8664          3.8664          0.0000          0.0000          0.0000
   0.6200          3.8768          3.8768          3.8768          0.0000          0.0000          0.0000
   0.6400          3.8863          3.8863          3.8863          0.0000          0.0000          0.0000
   0.6600          3.8951          3.8951          3.8951          0.0000          0.0000          0.0000
   0.6800          3.9030          3.9030          3.9030          0.0000          0.0000          0.0000
   0.7000          3.9101          3.9101          3.9101          0.0000          0.0000          0.0000
   0.7200          3.9163          3.9163          3.9163          0.0000          0.0000          0.0000
   0.7400          3.9216          3.9216          3.9216          0.0000          0.0000          0.0000
   0.7600          3.9260          3.9260          3.9260          0.0000          0.0000          0.0000
   0.7800          3.9295          3.9295          3.9295          0.0000          0.0000          0.0000
   0.8000          3.9320          3.9320          3.9320          0.0000          0.0000          0.0000
   0.8200          3.9336          3.9336          3.9336          0.0000          0.0000          0.0000
   0.8400          3.9343          3.9343          3.9343          0.0000          0.0000          0.0000
   0.8600          3.9339          3.9339          3.9339          0.0000          0.0000          0.0000
   0.8800          3.9326          3.9326          3.9326          0.0000          0.0000          0.0000
   0.9000          3.9302          3.9302          3.9302          0.0000          0.0000          0.0000
   0.9200          3.9269          3.9269          3.9269          0.0000          0.0000          0.0000
   0.9400          3.9224          3.9224          3.9224          0.0000          0.0000          0.0000
   0.9600          3.9169          3.9169          3.9169          0.0000          0.0000          0.0000
   0.9800          3.9103          3.9103          3.9103          0.0000          0.0000          0.0000
   1.0000          3.9026          3.9026          3.9026          0.0000          0.0000          0.0000
   1.0200          3.8937          3.8937          3.8937          0.0000          0.0000          0.0000
   1.0400          3.8836          3.8836          3.8836          0.0000          0.0000          0.0000
   1.0600          3.8724          3.8724          3.8724          0.0000          0.0000          0.0000
   1.0800          3.8599          3.8599          3.8599          0.0000          0.0000          0.0000
   1.1000          3.8461          3.8461          3.8461          0.0000          0.0000          0.0000
   1.1200          3.8310          3.8310          3.8310          0.0000          0.0000          0.0000
   1.1400          3.8145          3.8145          3.8145          0.0000          0.0000          0.0000
   1.1600          3.7965          3.7965          3.7965          0.0000          0.0000          0.0000
   1.1800          3.7771          3.7771          3.7771          0.0000          0.0000          0.0000
   1.2000          3.7562          3.7562          3.7562          0.0000          0.0000          0.0000
   1.2200          3.7337          3.7337          3.7337          0.0000          0.0000          0.0000
   1.2400          3.7097          3.7097          3.7097          0.0000          0.0000          0.0000
   1.2600          3.6840          3.6840          3.6840          0.0000          0.0000          0.0000
   1.2800          3.6569          3.6569          3.6569          0.0000          0.0000          0.0000
   1.3000          3.6284          3.6284          3.6284          0.0000          0.0000          0.0000
   1.3200          3.5988          3.5988          3.5988          0.0000          0.0000          0.0000
   1.3400          3.5686          3.5686          3.5686          0.0000          0.0000          0.0000
   1.3600          3.5382          3.5382          3.5382          0.0000          0.0000          0.0000
   1.3800          3.5084          3.5084          3.5084          0.0000          0.0000          0.0000
   1.4000          3.4799          3.4799          3.4799          0.0000          0.0000          0.0000
   1.4200          3.4535          3.4535          3.4535          0.0000          0.0000          0.0000
   1.4400          3.4296          3.4296          3.4296          0.0000          0.0000          0.0000
   1.4600          3.4086          3.4086          3.4086          0.0000          0.0000          0.0000
   1.4800          3.3902          3.3902          3.3902          0.0000          0.0000          0.0000
   1.5000          3.3737          3.3737          3.3737          0.0000          0.0000          0.0000
   1.5200          3.3580          3.3580          3.3580          0.0000          0.0000          0.0000
   1.5400          3.3415          3.3415          3.3415          0.0000          0.0000          0.0000
   1.5600          3.3226          3.3226          3.3226          0.0000          0.0000          0.0000
   1.5800          3.2998          3.2998          3.2998          0.0000          0.0000          0.0000
   1.6000          3.2721          3.2721          3.2721          0.0000          0.0000          0.0000
   1.6200          3.2387          3.2387          3.2387          0.0000          0.0000          0.0000
   1.6400          3.1998          3.1998          3.1998          0.0000          0.0000          0.0000
   1.6600          3.1560          3.1560          3.1560          0.0000          0.0000          0.0000
   1.6800          3.1083          3.1083          3.1083          0.0000          0.0000          0.0000
   1.7000          3.0581          3.0581          3.0581          0.0000          0.0000          0.0000
   1.7200          3.0067          3.0067          3.0067          0.0000          0.0000          0.0000
   1.7400          2.9553          2.9553          2.9553          0.0000          0.0000          0.0000
   1.7600          2.9049          2.9049          2.9049          0.0000          0.0000          0.0000
   1.7800          2.8560          2.8560          2.8560          0.0000          0.0000          0.0000
   1.8000          2.8089          2.8089          2.8089          0.0000          0.0000          0.0000
   1.8200          2.7637          2.7637          2.7637          0.0000          0.0000          0.0000
   1.8400          2.7206          2.7206          2.7206          0.0000          0.0000          0.0000
   1.8600          2.6797          2.6797          2.6797          0.0000          0.0000          0.0000
   1.8800          2.6410          2.6410          2.6410          0.0000          0.0000          0.0000
   1.9000          2.6049          2.6049          2.6049          0.0000          0.0000          0.0000
   1.9200          2.5714          2.5714          2.5714          0.0000          0.0000          0.0000
   1.9400          2.5407          2.5407          2.5407          0.0000          0.0000          0.0000
   1.9600          2.5125          2.5125          2.5125          0.0000          0.0000          0.0000
   1.9800          2.4868          2.4868          2.4868          0.0000          0.0000          0.0000
   2.0000          2.4631          2.4631          2.4631          0.0000          0.0000          0.0000
   2.0200          2.4412          2.4412          2.4412          0.0000          0.0000          0.0000
   2.0400          2.4208          2.4208          2.4208          0.0000          0.0000          0.0000
   2.0600          2.4017          2.4017          2.4017          0.0000          0.0000          0.0000
   2.0800          2.3842          2.3842          2.3842          0.0000          0.0000          0.0000
   2.1000          2.3687          2.3687          2.3687          0.0000          0.0000          0.0000
   2.1200          2.3562          2.3562          2.3562          0.0000          0.0000          0.0000
   2.1400          2.3484          2.3484          2.3484          0.0000          0.0000          0.0000
   2.1600          2.3473          2.3473          2.3473          0.0000          0.0000          0.0000
   2.1800          2.3551          2.3551          2.3551          0.0000          0.0000          0.0000
   2.2000          2.3738          2.3738          2.3738          0.0000          0.0000          0.0000
   2.2200          2.4045          2.4045          2.4045          0.0000          0.0000          0.0000
   2.2400          2.4472          2.4472          2.4472          0.0000          0.0000          0.0000
   2.2600          2.5004          2.5004          2.5004          0.0000          0.0000          0.0000
   2.2800          2.5614          2.5614          2.5614          0.0000          0.0000          0.0000
   2.3000          2.6266          2.6266          2.6266          0.0000          0.0000          0.0000
   2.3200          2.6920          2.6920          2.6920          0.0000          0.0000          0.0000
   2.3400          2.7537          2.7537          2.7537          0.0000          0.0000          0.0000
   2.3600          2.8085          2.8085          2.8085          0.0000          0.0000          0.0000
   2.3800          2.8538          2.8538          2.8538          0.0000          0.0000          0.0000
   2.4000          2.8878          2.8878          2.8878          0.0000          0.0000          0.0000
   2.4200          2.9091          2.9091          2.9091          0.0000          0.0000          0.0000
   2.4400          2.9175          2.9175          2.9175          0.0000          0.0000          0.0000
   2.4600          2.9132          2.9132          2.9132          0.0000          0.0000          0.0000
   2.4800          2.8974          2.8974          2.8974          0.0000          0.0000          0.0000
   2.5000          2.8720          2.8720          2.8720          0.0000          0.0000          0.0000
   2.5200          2.8399          2.8399          2.8399          0.0000          0.0000          0.0000
   2.5400          2.8040          2.8040          2.8040          0.0000          0.0000          0.0000
   2.5600          2.7679          2.7679          2.7679          0.0000          0.0000          0.0000
   2.5800          2.7346          2.7346          2.7346          0.0000          0.0000          0.0000
   2.6000          2.7070          2.7070          2.7070          0.0000          0.0000          0.0000
   2.6200          2.6874          2.6874          2.6874          0.0000          0.0000          0.0000
   2.6400          2.6774          2.6774          2.6774          0.0000          0.0000          0.0000
   2.6600          2.6784          2.6784          2.6784          0.0000          0.0000          0.0000
   2.6800          2.6911          2.6911          2.6911          0.0000          0.0000          0.0000
   2.7000          2.7156          2.7156          2.7156          0.0000          0.0000          0.0000
   2.7200          2.7514          2.7514          2.7514          0.0000          0.0000          0.0000
   2.7400          2.7973          2.7973          2.7973          0.0000          0.0000          0.0000
   2.7600          2.8512          2.8512          2.8512          0.0000          0.0000          0.0000
   2.7800          2.9103          2.9103          2.9103          0.0000          0.0000          0.0000
   2.8000          2.9713          2.9713          2.9713          0.0000          0.0000          0.0000
   2.8200          3.0303          3.0303          3.0303          0.0000          0.0000          0.0000
   2.8400          3.0836          3.0836          3.0836          0.0000          0.0000          0.0000
   2.8600          3.1281          3.1281          3.1281          0.0000          0.0000          0.0000
   2.8800          3.1613          3.1613          3.1613          0.0000          0.0000          0.0000
   2.9000          3.1817          3.1817          3.1817          0.0000          0.0000          0.0000
   2.9200          3.1893          3.1893          3.1893          0.0000          0.0000          0.0000
   2.9400          3.1852          3.1852          3.1852          0.0000          0.0000          0.0000
   2.9600          3.1716          3.1716          3.1716          0.0000          0.0000          0.0000
   2.9800          3.1514          3.1514          3.1514          0.0000          0.0000          0.0000
   3.0000          3.1280          3.1280          3.1280          0.0000          0.0000          0.0000
   3.0200          3.1047          3.1047          3.1047          0.0000          0.0000          0.0000
   3.0400          3.0844          3.0844          3.0844          0.0000          0.0000          0.0000
   3.0600          3.0692          3.0692          3.0692          0.0000          0.0000          0.0000
   3.0800          3.0602          3.0602          3.0602          0.0000          0.0000          0.0000
   3.1000          3.0574          3.0574          3.0574          0.0000          0.0000          0.0000
   3.1200          3.0603          3.0603          3.0603          0.0000          0.0000          0.0000
   3.1400          3.0675          3.0675          3.0675          0.0000          0.0000          0.0000
   3.1600          3.0773          3.0773          3.0773          0.0000          0.0000          0.0000
   3.1800          3.0880          3.0880          3.0880          0.0000          0.0000          0.0000
   3.2000          3.0980          3.0980          3.0980          0.0000          0.0000          0.0000
   3.2200          3.1058          3.1058          3.1058          0.0000          0.0000          0.0000
   3.2400          3.1107          3.1107          3.1107          0.0000          0.0000          0.0000
   3.2600          3.1125          3.1125          3.1125          0.0000          0.0000          0.0000
   3.2800          3.1119          3.1119          3.1119          0.0000          0.0000          0.0000
   3.3000          3.1106          3.1106          3.1106          0.0000          0.0000          0.0000
   3.3200          3.1109          3.1109          3.1109          0.0000          0.0000          0.0000
   3.3400          3.1156          3.1156          3.1156          0.0000          0.0000          0.0000
   3.3600          3.1267          3.1267          3.1267          0.0000          0.0000          0.0000
   3.3800          3.1456          3.1456          3.1456          0.0000          0.0000          0.0000
   3.4000          3.1721          3.1721          3.1721          0.0000          0.0000          0.0000
   3.4200          3.2046          3.2046          3.2046          0.0000          0.0000          0.0000
   3.4400          3.2403          3.2403          3.2403          0.0000          0.0000          0.0000
   3.4600          3.2763          3.2763          3.2763          0.0000          0.0000          0.0000
   3.4800          3.3098          3.3098          3.3098          0.0000          0.0000          0.0000
   3.5000          3.3393          3.3393          3.3393          0.0000          0.0000          0.0000
   3.5200          3.3647          3.3647          3.3647          0.0000          0.0000          0.0000
   3.5400          3.3873          3.3873          3.3873          0.0000          0.0000          0.0000
   3.5600          3.4095          3.4095          3.4095          0.0000          0.0000          0.0000
   3.5800          3.4339          3.4339          3.4339          0.0000          0.0000          0.0000
   3.6000          3.4626          3.4626          3.4626          0.0000          0.0000          0.0000
   3.6200          3.4966          3.4966          3.4966          0.0000          0.0000          0.0000
   3.6400          3.5356          3.5356          3.5356          0.0000          0.0000          0.0000
   3.6600          3.5780          3.5780          3.5780          0.0000          0.0000          0.0000
   3.6800          3.6208          3.6208          3.6208          0.0000          0.0000          0.0000
   3.7000          3.6607          3.6607          3.6607          0.0000          0.0000          0.0000
   3.7200          3.6943          3.6943          3.6943          0.0000          0.0000          0.0000
   3.7400          3.7192          3.7192          3.7192          0.0000          0.0000          0.0000
   3.7600          3.7338          3.7338          3.7338          0.0000          0.0000          0.0000
   3.7800          3.7384          3.7384          3.7384          0.0000          0.0000          0.0000
   3.8000          3.7340          3.7340          3.7340          0.0000          0.0000          0.0000
   3.8200          3.7224          3.7224          3.7224          0.0000          0.0000          0.0000
   3.8400          3.7056          3.7056          3.7056          0.0000          0.0000          0.0000
   3.8600          3.6850          3.6850          3.6850          0.0000          0.0000          0.0000
   3.8800          3.6618          3.6618          3.6618          0.0000          0.0000          0.0000
   3.9000          3.6368          3.6368          3.6368          0.0000          0.0000          0.0000
   3.9200          3.6112          3.6112          3.6112          0.0000          0.0000          0.0000
   3.9400          3.5865          3.5865          3.5865          0.0000          0.0000          0.0000
   3.9600          3.5653          3.5653          3.5653          0.0000          0.0000          0.0000
   3.9800          3.5506          3.5506          3.5506          0.0000          0.0000          0.0000
   4.0000          3.5456          3.5456          3.5456          0.0000          0.0000          0.0000
   4.0200          3.5528          3.5528          3.5528          0.0000          0.0000          0.0000
   4.0400          3.5731          3.5731          3.5731          0.0000          0.0000          0.0000
   4.0600          3.6054          3.6054          3.6054          0.0000          0.0000          0.0000
   4.0800          3.6468          3.6468          3.6468          0.0000          0.0000          0.0000
   4.1000          3.6927          3.6927          3.6927          0.0000          0.0000          0.0000
   4.1200          3.7382          3.7382          3.7382          0.0000          0.0000          0.0000
   4.1400          3.7785          3.7785          3.7785          0.0000          0.0000          0.0000
   4.1600          3.8100          3.8100          3.8100          0.0000          0.0000          0.0000
   4.1800          3.8306          3.8306          3.8306          0.0000          0.0000          0.0000
   4.2000          3.8399          3.8399          3.8399          0.0000          0.0000          0.0000
   4.2200          3.8385          3.8385          3.8385          0.0000          0.0000          0.0000
   4.2400          3.8281          3.8281          3.8281          0.0000          0.0000          0.0000
   4.2600          3.8105          3.8105          3.8105          0.0000          0.0000          0.0000
   4.2800          3.7876          3.7876          3.7876          0.0000          0.0000          0.0000
   4.3000          3.7611          3.7611          3.7611          0.0000          0.0000          0.0000
   4.3200          3.7328          3.7328          3.7328          0.0000          0.0000          0.0000
   4.3400          3.7040          3.7040          3.7040          0.0000          0.0000          0.0000
   4.3600          3.6763          3.6763          3.6763          0.0000          0.0000          0.0000
   4.3800          3.6507          3.6507          3.6507          0.0000          0.0000          0.0000
   4.4000          3.6285          3.6285          3.6285          0.0000          0.0000          0.0000
   4.4200          3.6104          3.6104          3.6104          0.0000          0.0000          0.0000
   4.4400          3.5968          3.5968          3.5968          0.0000          0.0000          0.0000
   4.4600          3.5877          3.5877          3.5877          0.0000          0.0000          0.0000
   4.4800          3.5824          3.5824          3.5824          0.0000          0.0000          0.0000
   4.5000          3.5797          3.5797          3.5797          0.0000          0.0000          0.0000
   4.5200          3.5784          3.5784          3.5784          0.0000          0.0000          0.0000
   4.5400          3.5766          3.5766          3.5766          0.0000          0.0000          0.0000
   4.5600          3.5731          3.5731          3.5731          0.0000          0.0000          0.0000
   4.5800          3.5664          3.5664          3.5664          0.0000          0.0000          0.0000
   4.6000          3.5559          3.5559          3.5559          0.0000          0.0000          0.0000
   4.6200          3.5411          3.5411          3.5411          0.0000          0.0000          0.0000
   4.6400          3.5222          3.5222          3.5222          0.0000          0.0000          0.0000
   4.6600          3.4995          3.4995          3.4995          0.0000          0.0000          0.0000
   4.6800          3.4736          3.4736          3.4736          0.0000          0.0000          0.0000
   4.7000          3.4453          3.4453          3.4453          0.0000          0.0000          0.0000
   4.7200          3.4155          3.4155          3.4155          0.0000          0.0000          0.0000
   4.7400          3.3854          3.3854          3.3854          0.0000          0.0000          0.0000
   4.7600          3.3563          3.3563          3.3563          0.0000          0.0000          0.0000
   4.7800          3.3297          3.3297          3.3297          0.0000          0.0000          0.0000
   4.8000          3.3068          3.3068          3.3068          0.0000          0.0000          0.0000
   4.8200          3.2887          3.2887          3.2887          0.0000          0.0000          0.0000
   4.8400          3.2757          3.2757          3.2757          0.0000          0.0000          0.0000
   4.8600          3.2674          3.2674          3.2674          0.0000          0.0000          0.0000
   4.8800          3.2627          3.2627          3.2627          0.0000          0.0000          0.0000
   4.9000          3.2602          3.2602          3.2602          0.0000          0.0000          0.0000
   4.9200          3.2582          3.2582          3.2582          0.0000          0.0000          0.0000
   4.9400          3.2556          3.2556          3.2556          0.0000          0.0000          0.0000
   4.9600          3.2515          3.2515          3.2515          0.0000          0.0000          0.0000
   4.9800          3.2461          3.2461          3.2461          0.0000          0.0000          0.0000
   5.0000          3.2397          3.2397          3.2397          0.0000          0.0000          0.0000
   5.0200          3.2334          3.2334          3.2334          0.0000          0.0000          0.0000
   5.0400          3.2280          3.2280          3.2280          0.0000          0.0000          0.0000
   5.0600          3.2238          3.2238          3.2238          0.0000          0.0000          0.0000
   5.0800          3.2207          3.2207          3.2207          0.0000          0.0000          0.0000
   5.1000          3.2183          3.2183          3.2183          0.0000          0.0000          0.0000
   5.1200          3.2154          3.2154          3.2154          0.0000          0.0000          0.0000
   5.1400          3.2115          3.2115          3.2115          0.0000          0.0000          0.0000
   5.1600          3.2059          3.2059          3.2059          0.0000          0.0000          0.0000
   5.1800          3.1987          3.1987          3.1987          0.0000          0.0000          0.0000
   5.2000          3.1906          3.1906          3.1906          0.0000          0.0000          0.0000
   5.2200          3.1824          3.1824          3.1824          0.0000          0.0000          0.0000
   5.2400          3.1749          3.1749          3.1749          0.0000          0.0000          0.0000
   5.2600          3.1690          3.1690          3.1690          0.0000          0.0000          0.0000
   5.2800          3.1650          3.1650          3.1650          0.0000          0.0000          0.0000
   5.3000          3.1626          3.1626          3.1626          0.0000          0.0000          0.0000
   5.3200          3.1612          3.1612          3.1612          0.0000          0.0000          0.0000
   5.3400          3.1602          3.1602          3.1602          0.0000          0.0000          0.0000
   5.3600          3.1588          3.1588          3.1588          0.0000          0.0000          0.0000
   5.3800          3.1566          3.1566          3.1566          0.0000          0.0000          0.0000
   5.4000          3.1535          3.1535          3.1535          0.0000          0.0000          0.0000
   5.4200          3.1498          3.1498          3.1498          0.0000          0.0000          0.0000
   5.4400          3.1461          3.1461          3.1461          0.0000          0.0000          0.0000
   5.4600          3.1430          3.1430          3.1430          0.0000          0.0000          0.0000
   5.4800          3.1410          3.1410          3.1410          0.0000          0.0000          0.0000
   5.5000          3.1403          3.1403          3.1403          0.0000          0.0000          0.0000
   5.5200          3.1406          3.1406          3.1406          0.0000          0.0000          0.0000
   5.5400          3.1413          3.1413          3.1413          0.0000          0.0000          0.0000
   5.5600          3.1414          3.1414          3.1414          0.0000          0.0000          0.0000
   5.5800          3.1398          3.1398          3.1398          0.0000          0.0000          0.0000
   5.6000          3.1355          3.1355          3.1355          0.0000          0.0000          0.0000
   5.6200          3.1276          3.1276          3.1276          0.0000          0.0000          0.0000
   5.6400          3.1152          3.1152          3.1152          0.0000          0.0000          0.0000
   5.6600          3.0982          3.0982          3.0982          0.0000          0.0000          0.0000
   5.6800          3.0765          3.0765          3.0765          0.0000          0.0000          0.0000
   5.7000          3.0503          3.0503          3.0503          0.0000          0.0000          0.0000
   5.7200          3.0203          3.0203          3.0203          0.0000          0.0000          0.0000
   5.7400          2.9875          2.9875          2.9875          0.0000          0.0000          0.0000
   5.7600          2.9530          2.9530          2.9530          0.0000          0.0000          0.0000
   5.7800          2.9181          2.9181          2.9181          0.0000          0.0000          0.0000
   5.8000          2.8840          2.8840          2.8840          0.0000          0.0000          0.0000
   5.8200          2.8516          2.8516          2.8516          0.0000          0.0000          0.0000
   5.8400          2.8214          2.8214          2.8214          0.0000          0.0000          0.0000
   5.8600          2.7935          2.7935          2.7935          0.0000          0.0000          0.0000
   5.8800          2.7677          2.7677          2.7677          0.0000          0.0000          0.0000
   5.9000          2.7433          2.7433          2.7433          0.0000          0.0000          0.0000
   5.9200          2.7200          2.7200          2.7200          0.0000          0.0000          0.0000
   5.9400          2.6976          2.6976          2.6976          0.0000          0.0000          0.0000
   5.9600          2.6762          2.6762          2.6762          0.0000          0.0000          0.0000
   5.9800          2.6564          2.6564          2.6564          0.0000          0.0000          0.0000
   6.0000          2.6387          2.6387          2.6387          0.0000          0.0000          0.0000
   6.0200          2.6234          2.6234          2.6234          0.0000          0.0000          0.0000
   6.0400          2.6104          2.6104          2.6104          0.0000          0.0000          0.0000
   6.0600          2.5991          2.5991          2.5991          0.0000          0.0000          0.0000
   6.0800          2.5882          2.5882          2.5882          0.0000          0.0000          0.0000
   6.1000          2.5763          2.5763          2.5763          0.0000          0.0000          0.0000
   6.1200          2.5619          2.5619          2.5619          0.0000          0.0000          0.0000
   6.1400          2.5437          2.5437          2.5437          0.0000          0.0000          0.0000
   6.1600          2.5214          2.5214          2.5214          0.0000          0.0000          0.0000
   6.1800          2.4952          2.4952          2.4952          0.0000          0.0000          0.0000
   6.2000          2.4662          2.4662          2.4662          0.0000          0.0000          0.0000
   6.2200          2.4357          2.4357          2.4357          0.0000          0.0000          0.0000
   6.2400          2.4054          2.4054          2.4054          0.0000          0.0000          0.0000
   6.2600          2.3764          2.3764          2.3764          0.0000          0.0000          0.0000
   6.2800          2.3494          2.3494          2.3494          0.0000          0.0000          0.0000
   6.3000          2.3246          2.3246          2.3246          0.0000          0.0000          0.0000
   6.3200          2.3019          2.3019          2.3019          0.0000          0.0000          0.0000
   6.3400          2.2812          2.2812          2.2812          0.0000          0.0000          0.0000
   6.3600          2.2629          2.2629          2.2629          0.0000          0.0000          0.0000
   6.3800          2.2480          2.2480          2.2480          0.0000          0.0000          0.0000
   6.4000          2.2383          2.2383          2.2383          0.0000          0.0000          0.0000
   6.4200          2.2363          2.2363          2.2363          0.0000          0.0000          0.0000
   6.4400          2.2446          2.2446          2.2446          0.0000          0.0000          0.0000
   6.4600          2.2657          2.2657          2.2657          0.0000          0.0000          0.0000
   6.4800          2.3013          2.3013          2.3013          0.0000          0.0000          0.0000
   6.5000          2.3518          2.3518          2.3518          0.0000          0.0000          0.0000
   6.5200          2.4162          2.4162          2.4162          0.0000          0.0000          0.0000
   6.5400          2.4919          2.4919          2.4919          0.0000          0.0000          0.0000
   6.5600          2.5750          2.5750          2.5750          0.0000          0.0000          0.0000
   6.5800          2.6610          2.6610          2.6610          0.0000          0.0000          0.0000
   6.6000          2.7451          2.7451          2.7451          0.0000          0.0000          0.0000
   6.6200          2.8233          2.8233          2.8233          0.0000          0.0000          0.0000
   6.6400          2.8928          2.8928          2.8928          0.0000          0.0000          0.0000
   6.6600          2.9518          2.9518          2.9518          0.0000          0.0000          0.0000
   6.6800          3.0001          3.0001          3.0001          0.0000          0.0000          0.0000
   6.7000          3.0381          3.0381          3.0381          0.0000          0.0000          0.0000
   6.7200          3.0667          3.0667          3.0667          0.0000          0.0000          0.0000
   6.7400          3.0870          3.0870          3.0870          0.0000          0.0000          0.0000
   6.7600          3.1001          3.1001          3.1001          0.0000          0.0000          0.0000
   6.7800          3.1072          3.1072          3.1072          0.0000          0.0000          0.0000
   6.8000          3.1097          3.1097          3.1097          0.0000          0.0000          0.0000
   6.8200          3.1094          3.1094          3.1094          0.0000          0.0000          0.0000
   6.8400          3.1084          3.1084          3.1084          0.0000          0.0000          0.0000
   6.8600          3.1088          3.1088          3.1088          0.0000          0.0000          0.0000
   6.8800          3.1126          3.1126          3.1126          0.0000          0.0000          0.0000
   6.9000          3.1211          3.1211          3.1211          0.0000          0.0000          0.0000
   6.9200          3.1349          3.1349          3.1349          0.0000          0.0000          0.0000
   6.9400          3.1539          3.1539          3.1539          0.0000          0.0000          0.0000
   6.9600          3.1770          3.1770          3.1770          0.0000          0.0000          0.0000
   6.9800          3.2028          3.2028          3.2028          0.0000          0.0000          0.0000
   7.0000          3.2298          3.2298          3.2298          0.0000          0.0000          0.0000
   7.0200          3.2564          3.2564          3.2564          0.0000          0.0000          0.0000
   7.0400          3.2814          3.2814          3.2814          0.0000          0.0000          0.0000
   7.0600          3.3037          3.3037          3.3037          0.0000          0.0000          0.0000
   7.0800          3.3227          3.3227          3.3227          0.0000          0.0000          0.0000
   7.1000          3.3379          3.3379          3.3379          0.0000          0.0000          0.0000
   7.1200          3.3495          3.3495          3.3495          0.0000          0.0000          0.0000
   7.1400          3.3579          3.3579          3.3579          0.0000          0.0000          0.0000
   7.1600          3.3634          3.3634          3.3634          0.0000          0.0000          0.0000
   7.1800          3.3667          3.3667          3.3667          0.0000          0.0000          0.0000
   7.2000          3.3681          3.3681          3.3681          0.0000          0.0000          0.0000
   7.2200          3.3675          3.3675          3.3675          0.0000          0.0000          0.0000
   7.2400          3.3651          3.3651          3.3651          0.0000          0.0000          0.0000
   7.2600          3.3608          3.3608          3.3608          0.0000          0.0000          0.0000
   7.2800          3.3548          3.3548          3.3548          0.0000          0.0000          0.0000
   7.3000          3.3479          3.3479          3.3479          0.0000          0.0000          0.0000
   7.3200          3.3409          3.3409          3.3409          0.0000          0.0000          0.0000
   7.3400          3.3352          3.3352          3.3352          0.0000          0.0000          0.0000
   7.3600          3.3320          3.3320          3.3320          0.0000          0.0000          0.0000
   7.3800          3.3323          3.3323          3.3323          0.0000          0.0000          0.0000
   7.4000          3.3368          3.3368          3.3368          0.0000          0.0000          0.0000
   7.4200          3.3457          3.3457          3.3457          0.0000          0.0000          0.0000
   7.4400          3.3590          3.3590          3.3590          0.0000          0.0000          0.0000
   7.4600          3.3767          3.3767          3.3767          0.0000          0.0000          0.0000
   7.4800          3.3987          3.3987          3.3987          0.0000          0.0000          0.0000
   7.5000          3.4250          3.4250          3.4250          0.0000          0.0000          0.0000
   7.5200          3.4553          3.4553          3.4553          0.0000          0.0000          0.0000
   7.5400          3.4895          3.4895          3.4895          0.0000          0.0000          0.0000
   7.5600          3.5272          3.5272          3.5272          0.0000          0.0000          0.0000
   7.5800          3.5679          3.5679          3.5679          0.0000          0.0000          0.0000
   7.6000          3.6105          3.6105          3.6105          0.0000          0.0000          0.0000
   7.6200          3.6539          3.6539          3.6539          0.0000          0.0000          0.0000
   7.6400          3.6970          3.6970          3.6970          0.0000          0.0000          0.0000
   7.6600          3.7385          3.7385          3.7385          0.0000          0.0000          0.0000
   7.6800          3.7770          3.7770          3.7770          0.0000          0.0000          0.0000
   7.7000          3.8116          3.8116          3.8116          0.0000          0.0000          0.0000
   7.7200          3.8414          3.8414          3.8414          0.0000          0.0000          0.0000
   7.7400          3.8661          3.8661          3.8661          0.0000          0.0000          0.0000
   7.7600          3.8854          3.8854          3.8854          0.0000          0.0000          0.0000
   7.7800          3.8998          3.8998          3.8998          0.0000          0.0000          0.0000
   7.8000          3.9101          3.9101          3.9101          0.0000          0.0000          0.0000
   7.8200          3.9173          3.9173          3.9173          0.0000          0.0000          0.0000
   7.8400          3.9230          3.9230          3.9230          0.0000          0.0000          0.0000
   7.8600          3.9284          3.9284          3.9284          0.0000          0.0000          0.0000
   7.8800          3.9348          3.9348          3.9348          0.0000          0.0000          0.0000
   7.9000          3.9426          3.9426          3.9426          0.0000          0.0000          0.0000
   7.9200          3.9519          3.9519          3.9519          0.0000          0.0000          0.0000
   7.9400          3.9622          3.9622          3.9622          0.0000          0.0000          0.0000
   7.9600          3.9725          3.9725          3.9725          0.0000          0.0000          0.0000
   7.9800          3.9816          3.9816          3.9816          0.0000          0.0000          0.0000
   8.0000          3.9884          3.9884          3.9884          0.0000          0.0000          0.0000
   8.0200          3.9925          3.9925          3.9925          0.0000          0.0000          0.0000
   8.0400          3.9938          3.9938          3.9938          0.0000          0.0000          0.0000
   8.0600          3.9928          3.9928          3.9928          0.0000          0.0000          0.0000
   8.0800          3.9908          3.9908          3.9908          0.0000          0.0000          0.0000
   8.1000          3.9890          3.9890          3.9890          0.0000          0.0000          0.0000
   8.1200          3.9891          3.9891          3.9891          0.0000          0.0000          0.0000
   8.1400          3.9922          3.9922          3.9922          0.0000          0.0000          0.0000
   8.1600          3.9992          3.9992          3.9992          0.0000          0.0000          0.0000
   8.1800          4.0100          4.0100          4.0100          0.0000          0.0000          0.0000
   8.2000          4.0243          4.0243          4.0243          0.0000          0.0000          0.0000
   8.2200          4.0408          4.0408          4.0408          0.0000          0.0000          0.0000
   8.2400          4.0581          4.0581          4.0581          0.0000          0.0000          0.0000
   8.2600          4.0745          4.0745          4.0745          0.0000          0.0000          0.0000
   8.2800          4.0883          4.0883          4.0883          0.0000          0.0000          0.0000
   8.3000          4.0983          4.0983          4.0983          0.0000          0.0000          0.0000
   8.3200          4.1034          4.1034          4.1034          0.0000          0.0000          0.0000
   8.3400          4.1033          4.1033          4.1033          0.0000          0.0000          0.0000
   8.3600          4.0978          4.0978          4.0978          0.0000          0.0000          0.0000
   8.3800          4.0871          4.0871          4.0871          0.0000          0.0000          0.0000
   8.4000          4.0719          4.0719          4.0719          0.0000          0.0000          0.0000
   8.4200          4.0529          4.0529          4.0529          0.0000          0.0000          0.0000
   8.4400          4.0315          4.0315          4.0315          0.0000          0.0000          0.0000
   8.4600          4.0092          4.0092          4.0092          0.0000          0.0000          0.0000
   8.4800          3.9878          3.9878          3.9878          0.0000          0.0000          0.0000
   8.5000          3.9693          3.9693          3.9693          0.0000          0.0000          0.0000
   8.5200          3.9555          3.9555          3.9555          0.0000          0.0000          0.0000
   8.5400          3.9479          3.9479          3.9479          0.0000          0.0000          0.0000
   8.5600          3.9476          3.9476          3.9476          0.0000          0.0000          0.0000
   8.5800          3.9551          3.9551          3.9551          0.0000          0.0000          0.0000
   8.6000          3.9705          3.9705          3.9705          0.0000          0.0000          0.0000
   8.6200          3.9933          3.9933          3.9933          0.0000          0.0000          0.0000
   8.6400          4.0227          4.0227          4.0227          0.0000          0.0000          0.0000
   8.6600          4.0578          4.0578          4.0578          0.0000          0.0000          0.0000
   8.6800          4.0972          4.0972          4.0972          0.0000          0.0000          0.0000
   8.7000          4.1394          4.1394          4.1394          0.0000          0.0000          0.0000
   8.7200          4.1824          4.1824          4.1824          0.0000          0.0000          0.0000
   8.7400          4.2241          4.2241          4.2241          0.0000          0.0000          0.0000
   8.7600          4.2623          4.2623          4.2623          0.0000          0.0000          0.0000
   8.7800          4.2951          4.2951          4.2951          0.0000          0.0000          0.0000
   8.8000          4.3212          4.3212          4.3212          0.0000          0.0000          0.0000
   8.8200          4.3399          4.3399          4.3399          0.0000          0.0000          0.0000
   8.8400          4.3514          4.3514          4.3514          0.0000          0.0000          0.0000
   8.8600          4.3564          4.3564          4.3564          0.0000          0.0000          0.0000
   8.8800          4.3564          4.3564          4.3564          0.0000          0.0000          0.0000
   8.9000          4.3527          4.3527          4.3527          0.0000          0.0000          0.0000
   8.9200          4.3469          4.3469          4.3469          0.0000          0.0000          0.0000
   8.9400          4.3400          4.3400          4.3400          0.0000          0.0000          0.0000
   8.9600          4.3332          4.3332          4.3332          0.0000          0.0000          0.0000
   8.9800          4.3270          4.3270          4.3270          0.0000          0.0000          0.0000
   9.0000          4.3221          4.3221          4.3221          0.0000          0.0000          0.0000
   9.0200          4.3187          4.3187          4.3187          0.0000          0.0000          0.0000
   9.0400          4.3173          4.3173          4.3173          0.0000          0.0000          0.0000
   9.0600          4.3184          4.3184          4.3184          0.0000          0.0000          0.0000
   9.0800          4.3222          4.3222          4.3222          0.0000          0.0000          0.0000
   9.1000          4.3292          4.3292          4.3292          0.0000          0.0000          0.0000
   9.1200          4.3394          4.3394          4.3394          0.0000          0.0000          0.0000
   9.1400          4.3527          4.3527          4.3527          0.0000          0.0000          0.0000
   9.1600          4.3687          4.3687          4.3687          0.0000          0.0000          0.0000
   9.1800          4.3868          4.3868          4.3868          0.0000          0.0000          0.0000
   9.2000          4.4055          4.4055          4.4055          0.0000          0.0000          0.0000
   9.2200          4.4233          4.4233          4.4233          0.0000          0.0000          0.0000
   9.2400          4.4384          4.4384          4.4384          0.0000          0.0000          0.0000
   9.2600          4.4490          4.4490          4.4490          0.0000          0.0000          0.0000
   9.2800          4.4537          4.4537          4.4537          0.0000          0.0000          0.0000
   9.3000          4.4518          4.4518          4.4518          0.0000          0.0000          0.0000
   9.3200          4.4434          4.4434          4.4434          0.0000          0.0000          0.0000
   9.3400          4.4291          4.4291          4.4291          0.0000          0.0000          0.0000
   9.3600          4.4103          4.4103          4.4103          0.0000          0.0000          0.0000
   9.3800          4.3887          4.3887          4.3887          0.0000          0.0000          0.0000
   9.4000          4.3661          4.3661          4.3661          0.0000          0.0000          0.0000
   9.4200          4.3442          4.3442          4.3442          0.0000          0.0000          0.0000
   9.4400          4.3245          4.3245          4.3245          0.0000          0.0000          0.0000
   9.4600          4.3086          4.3086          4.3086          0.0000          0.0000          0.0000
   9.4800          4.2976          4.2976          4.2976          0.0000          0.0000          0.0000
   9.5000          4.2926          4.2926          4.2926          0.0000          0.0000          0.0000
   9.5200          4.2943          4.2943          4.2943          0.0000          0.0000          0.0000
   9.5400          4.3027          4.3027          4.3027          0.0000          0.0000          0.0000
   9.5600          4.3170          4.3170          4.3170          0.0000          0.0000          0.0000
   9.5800          4.3360          4.3360          4.3360          0.0000          0.0000          0.0000
   9.6000          4.3574          4.3574          4.3574          0.0000          0.0000          0.0000
   9.6200          4.3788          4.3788          4.3788          0.0000          0.0000          0.0000
   9.6400          4.3977          4.3977          4.3977          0.0000          0.0000          0.0000
   9.6600          4.4117          4.4117          4.4117          0.0000          0.0000          0.0000
   9.6800          4.4193          4.4193          4.4193          0.0000          0.0000          0.0000
   9.7000          4.4194          4.4194          4.4194          0.0000          0.0000          0.0000
   9.7200          4.4117          4.4117          4.4117          0.0000          0.0000          0.0000
   9.7400          4.3968          4.3968          4.3968          0.0000          0.0000          0.0000
   9.7600          4.3754          4.3754          4.3754          0.0000          0.0000          0.0000
   9.7800          4.3489          4.3489          4.3489          0.0000          0.0000          0.0000
   9.8000          4.3189          4.3189          4.3189          0.0000          0.0000          0.0000
   9.8200          4.2869          4.2869          4.2869          0.0000          0.0000          0.0000
   9.8400          4.2547          4.2547          4.2547          0.0000          0.0000          0.0000
   9.8600          4.2238          4.2238          4.2238          0.0000          0.0000          0.0000
   9.8800          4.1953          4.1953          4.1953          0.0000          0.0000          0.0000
   9.9000          4.1702          4.1702          4.1702          0.0000          0.0000          0.0000
   9.9200          4.1489          4.1489          4.1489          0.0000          0.0000          0.0000
   9.9400          4.1319          4.1319          4.1319          0.0000          0.0000          0.0000
   9.9600          4.1191          4.1191          4.1191          0.0000          0.0000          0.0000
   9.9800          4.1108          4.1108          4.1108          0.0000          0.0000          0.0000
  10.0000          4.1069          4.1069          4.1069          0.0000          0.0000          0.0000
  10.0200          4.1076          4.1076          4.1076          0.0000          0.0000          0.0000
  10.0400          4.1125          4.1125          4.1125          0.0000          0.0000          0.0000
  10.0600          4.1211          4.1211          4.1211          0.0000          0.0000          0.0000
  10.0800          4.1324          4.1324          4.1324          0.0000          0.0000          0.0000
  10.1000          4.1450          4.1450          4.1450          0.0000          0.0000          0.0000
  10.1200          4.1572          4.1572          4.1572          0.0000          0.0000          0.0000
  10.1400          4.1669          4.1669          4.1669          0.0000          0.0000          0.0000
  10.1600          4.1723          4.1723          4.1723          0.0000          0.0000          0.0000
  10.1800          4.1718          4.1718          4.1718          0.0000          0.0000          0.0000
  10.2000          4.1642          4.1642          4.1642          0.0000          0.0000          0.0000
  10.2200          4.1488          4.1488          4.1488          0.0000          0.0000          0.0000
  10.2400          4.1258          4.1258          4.1258          0.0000          0.0000          0.0000
  10.2600          4.0957          4.0957          4.0957          0.0000          0.0000          0.0000
  10.2800          4.0598          4.0598          4.0598          0.0000          0.0000          0.0000
  10.3000          4.0197          4.0197          4.0197          0.0000          0.0000          0.0000
  10.3200          3.9773          3.9773          3.9773          0.0000          0.0000          0.0000
  10.3400          3.9348          3.9348          3.9348          0.0000          0.0000          0.0000
  10.3600          3.8941          3.8941          3.8941          0.0000          0.0000          0.0000
  10.3800          3.8574          3.8574          3.8574          0.0000          0.0000          0.0000
  10.4000          3.8260          3.8260          3.8260          0.0000          0.0000          0.0000
  10.4200          3.8010          3.8010          3.8010          0.0000          0.0000          0.0000
  10.4400          3.7829          3.7829          3.7829          0.0000          0.0000          0.0000
  10.4600          3.7716          3.7716          3.7716          0.0000          0.0000          0.0000
  10.4800          3.7662          3.7662          3.7662          0.0000          0.0000          0.0000
  10.5000          3.7654          3.7654          3.7654          0.0000          0.0000          0.0000
  10.5200          3.7677          3.7677          3.7677          0.0000          0.0000          0.0000
  10.5400          3.7713          3.7713          3.7713          0.0000          0.0000          0.0000
  10.5600          3.7751          3.7751          3.7751          0.0000          0.0000          0.0000
  10.5800          3.7780          3.7780          3.7780          0.0000          0.0000          0.0000
  10.6000          3.7799          3.7799          3.7799          0.0000          0.0000          0.0000
  10.6200          3.7812          3.7812          3.7812          0.0000          0.0000          0.0000
  10.6400          3.7829          3.7829          3.7829          0.0000          0.0000          0.0000
  10.6600          3.7860          3.7860          3.7860          0.0000          0.0000          0.0000
  10.6800          3.7915          3.7915          3.7915          0.0000          0.0000          0.0000
  10.7000          3.7999          3.7999          3.7999          0.0000          0.0000          0.0000
  10.7200          3.8109          3.8109          3.8109          0.0000          0.0000          0.0000
  10.7400          3.8234          3.8234          3.8234          0.0000          0.0000          0.0000
  10.7600          3.8359          3.8359          3.8359          0.0000          0.0000          0.0000
  10.7800          3.8466          3.8466          3.8466          0.0000          0.0000          0.0000
  10.8000          3.8539          3.8539          3.8539          0.0000          0.0000          0.0000
  10.8200          3.8569          3.8569          3.8569          0.0000          0.0000          0.0000
  10.8400          3.8556          3.8556          3.8556          0.0000          0.0000          0.0000
  10.8600          3.8504          3.8504          3.8504          0.0000          0.0000          0.0000
  10.8800          3.8427          3.8427          3.8427          0.0000          0.0000          0.0000
  10.9000          3.8337          3.8337          3.8337          0.0000          0.0000          0.0000
  10.9200          3.8244          3.8244          3.8244          0.0000          0.0000          0.0000
  10.9400          3.8152          3.8152          3.8152          0.0000          0.0000          0.0000
  10.9600          3.8058          3.8058          3.8058          0.0000          0.0000          0.0000
  10.9800          3.7959          3.7959          3.7959          0.0000          0.0000          0.0000
  11.0000          3.7845          3.7845          3.7845          0.0000          0.0000          0.0000
  11.0200          3.7714          3.7714          3.7714          0.0000          0.0000          0.0000
  11.0400          3.7563          3.7563          3.7563          0.0000          0.0000          0.0000
  11.0600          3.7398          3.7398          3.7398          0.0000          0.0000          0.0000
  11.0800          3.7228          3.7228          3.7228          0.0000          0.0000          0.0000
  11.1000          3.7062          3.7062          3.7062          0.0000          0.0000          0.0000
  11.1200          3.6907          3.6907          3.6907          0.0000          0.0000          0.0000
  11.1400          3.6768          3.6768          3.6768          0.0000          0.0000          0.0000
  11.1600          3.6642          3.6642          3.6642          0.0000          0.0000          0.0000
  11.1800          3.6521          3.6521          3.6521          0.0000          0.0000          0.0000
  11.2000          3.6393          3.6393          3.6393          0.0000          0.0000          0.0000
  11.2200          3.6245          3.6245          3.6245          0.0000          0.0000          0.0000
  11.2400          3.6062          3.6062          3.6062          0.0000          0.0000          0.0000
  11.2600          3.5837          3.5837          3.5837          0.0000          0.0000          0.0000
  11.2800          3.5566          3.5566          3.5566          0.0000          0.0000          0.0000
  11.3000          3.5252          3.5252          3.5252          0.0000          0.0000          0.0000
  11.3200          3.4905          3.4905          3.4905          0.0000          0.0000          0.0000
  11.3400          3.4539          3.4539          3.4539          0.0000          0.0000          0.0000
  11.3600          3.4171          3.4171          3.4171          0.0000          0.0000          0.0000
  11.3800          3.3819          3.3819          3.3819          0.0000          0.0000          0.0000
  11.4000          3.3504          3.3504          3.3504          0.0000          0.0000          0.0000
  11.4200          3.3241          3.3241          3.3241          0.0000          0.0000          0.0000
  11.4400          3.3045          3.3045          3.3045          0.0000          0.0000          0.0000
  11.4600          3.2924          3.2924          3.2924          0.0000          0.0000          0.0000
  11.4800          3.2878          3.2878          3.2878          0.0000          0.0000          0.0000
  11.5000          3.2902          3.2902          3.2902          0.0000          0.0000          0.0000
  11.5200          3.2982          3.2982          3.2982          0.0000          0.0000          0.0000
  11.5400          3.3102          3.3102          3.3102          0.0000          0.0000          0.0000
  11.5600          3.3242          3.3242          3.3242          0.0000          0.0000          0.0000
  11.5800          3.3389          3.3389          3.3389          0.0000          0.0000          0.0000
  11.6000          3.3533          3.3533          3.3533          0.0000          0.0000          0.0000
  11.6200          3.3674          3.3674          3.3674          0.0000          0.0000          0.0000
  11.6400          3.3817          3.3817          3.3817          0.0000          0.0000          0.0000
  11.6600          3.3975          3.3975          3.3975          0.0000          0.0000          0.0000
  11.6800          3.4160          3.4160          3.4160          0.0000          0.0000          0.0000
  11.7000          3.4380          3.4380          3.4380          0.0000          0.0000          0.0000
  11.7200          3.4641          3.4641          3.4641          0.0000          0.0000          0.0000
  11.7400          3.4939          3.4939          3.4939          0.0000          0.0000          0.0000
  11.7600          3.5262          3.5262          3.5262          0.0000          0.0000          0.0000
  11.7800          3.5600          3.5600          3.5600          0.0000          0.0000          0.0000
  11.8000          3.5940          3.5940          3.5940          0.0000          0.0000          0.0000
  11.8200          3.6272          3.6272          3.6272          0.0000          0.0000          0.0000
  11.8400          3.6593          3.6593          3.6593          0.0000          0.0000          0.0000
  11.8600          3.6902          3.6902          3.6902          0.0000          0.0000          0.0000
  11.8800          3.7198          3.7198          3.7198          0.0000          0.0000          0.0000
  11.9000          3.7479          3.7479          3.7479          0.0000          0.0000          0.0000
  11.9200          3.7739          3.7739          3.7739          0.0000          0.0000          0.0000
  11.9400          3.7969          3.7969          3.7969          0.0000          0.0000          0.0000
  11.9600          3.8157          3.8157          3.8157          0.0000          0.0000          0.0000
  11.9800          3.8291          3.8291          3.8291          0.0000          0.0000          0.0000
  12.0000          3.8365          3.8365          3.8365          0.0000          0.0000          0.0000
  12.0200          3.8378          3.8378          3.8378          0.0000          0.0000          0.0000
  12.0400          3.8336          3.8336          3.8336          0.0000          0.0000          0.0000
  12.0600          3.8251          3.8251          3.8251          0.0000          0.0000          0.0000
  12.0800          3.8137          3.8137          3.8137          0.0000          0.0000          0.0000
  12.1000          3.8008          3.8008          3.8008          0.0000          0.0000          0.0000
  12.1200          3.7875          3.7875          3.7875          0.0000          0.0000          0.0000
  12.1400          3.7745          3.7745          3.7745          0.0000          0.0000          0.0000
  12.1600          3.7618          3.7618          3.7618          0.0000          0.0000          0.0000
  12.1800          3.7491          3.7491          3.7491          0.0000          0.0000          0.0000
  12.2000          3.7359          3.7359          3.7359          0.0000          0.0000          0.0000
  12.2200          3.7215          3.7215          3.7215          0.0000          0.0000          0.0000
  12.2400          3.7058          3.7058          3.7058          0.0000          0.0000          0.0000
  12.2600          3.6891          3.6891          3.6891          0.0000          0.0000          0.0000
  12.2800          3.6721          3.6721          3.6721          0.0000          0.0000          0.0000
  12.3000          3.6560          3.6560          3.6560          0.0000          0.0000          0.0000
  12.3200          3.6424          3.6424          3.6424          0.0000          0.0000          0.0000
  12.3400          3.6328          3.6328          3.6328          0.0000          0.0000          0.0000
  12.3600          3.6284          3.6284          3.6284          0.0000          0.0000          0.0000
  12.3800          3.6300          3.6300          3.6300          0.0000          0.0000          0.0000
  12.4000          3.6373          3.6373          3.6373          0.0000          0.0000          0.0000
  12.4200          3.6498          3.6498          3.6498          0.0000          0.0000          0.0000
  12.4400          3.6660          3.6660          3.6660          0.0000          0.0000          0.0000
  12.4600          3.6841          3.6841          3.6841          0.0000          0.0000          0.0000
  12.4800          3.7021          3.7021          3.7021          0.0000          0.0000          0.0000
  12.5000          3.7181          3.7181          3.7181          0.0000          0.0000          0.0000
  12.5200          3.7307          3.7307          3.7307          0.0000          0.0000          0.0000
  12.5400          3.7390          3.7390          3.7390          0.0000          0.0000          0.0000
  12.5600          3.7425          3.7425          3.7425          0.0000          0.0000          0.0000
  12.5800          3.7418          3.7418          3.7418          0.0000          0.0000          0.0000
  12.6000          3.7376          3.7376          3.7376          0.0000          0.0000          0.0000
  12.6200          3.7309          3.7309          3.7309          0.0000          0.0000          0.0000
  12.6400          3.7226          3.7226          3.7226          0.0000          0.0000          0.0000
  12.6600          3.7132          3.7132          3.7132          0.0000          0.0000          0.0000
  12.6800          3.7030          3.7030          3.7030          0.0000          0.0000          0.0000
  12.7000          3.6915          3.6915          3.6915          0.0000          0.0000          0.0000
  12.7200          3.6785          3.6785          3.6785          0.0000          0.0000          0.0000
  12.7400          3.6637          3.6637          3.6637          0.0000          0.0000          0.0000
  12.7600          3.6469          3.6469          3.6469          0.0000          0.0000          0.0000
  12.7800          3.6286          3.6286          3.6286          0.0000          0.0000          0.0000
  12.8000          3.6097          3.6097          3.6097          0.0000          0.0000          0.0000
  12.8200          3.5912          3.5912          3.5912          0.0000          0.0000          0.0000
  12.8400          3.5747          3.5747          3.5747          0.0000          0.0000          0.0000
  12.8600          3.5615          3.5615          3.5615          0.0000          0.0000          0.0000
  12.8800          3.5527          3.5527          3.5527          0.0000          0.0000          0.0000
  12.9000          3.5489          3.5489          3.5489          0.0000          0.0000          0.0000
  12.9200          3.5501          3.5501          3.5501          0.0000          0.0000          0.0000
  12.9400          3.5557          3.5557          3.5557          0.0000          0.0000          0.0000
  12.9600          3.5647          3.5647          3.5647          0.0000          0.0000          0.0000
  12.9800          3.5758          3.5758          3.5758          0.0000          0.0000          0.0000
  13.0000          3.5881          3.5881          3.5881          0.0000          0.0000          0.0000
  13.0200          3.6010          3.6010          3.6010          0.0000          0.0000          0.0000
  13.0400          3.6144          3.6144          3.6144          0.0000          0.0000          0.0000
  13.0600          3.6292          3.6292          3.6292          0.0000          0.0000          0.0000
  13.0800          3.6465          3.6465          3.6465          0.0000          0.0000          0.0000
  13.1000          3.6681          3.6681          3.6681          0.0000          0.0000          0.0000
  13.1200          3.6953          3.6953          3.6953          0.0000          0.0000          0.0000
  13.1400          3.7292          3.7292          3.7292          0.0000          0.0000          0.0000
  13.1600          3.7699          3.7699          3.7699          0.0000          0.0000          0.0000
  13.1800          3.8165          3.8165          3.8165          0.0000          0.0000          0.0000
  13.2000          3.8674          3.8674          3.8674          0.0000          0.0000          0.0000
  13.2200          3.9201          3.9201          3.9201          0.0000          0.0000          0.0000
  13.2400          3.9719          3.9719          3.9719          0.0000          0.0000          0.0000
  13.2600          4.0196          4.0196          4.0196          0.0000          0.0000          0.0000
  13.2800          4.0607          4.0607          4.0607          0.0000          0.0000          0.0000
  13.3000          4.0927          4.0927          4.0927          0.0000          0.0000          0.0000
  13.3200          4.1142          4.1142          4.1142          0.0000          0.0000          0.0000
  13.3400          4.1243          4.1243          4.1243          0.0000          0.0000          0.0000
  13.3600          4.1234          4.1234          4.1234          0.0000          0.0000          0.0000
  13.3800          4.1123          4.1123          4.1123          0.0000          0.0000          0.0000
  13.4000          4.0930          4.0930          4.0930          0.0000          0.0000          0.0000
  13.4200          4.0679          4.0679          4.0679          0.0000          0.0000          0.0000
  13.4400          4.0396          4.0396          4.0396          0.0000          0.0000          0.0000
  13.4600          4.0111          4.0111          4.0111          0.0000          0.0000          0.0000
  13.4800          3.9849          3.9849          3.9849          0.0000          0.0000          0.0000
  13.5000          3.9631          3.9631          3.9631          0.0000          0.0000          0.0000
  13.5200          3.9471          3.9471          3.9471          0.0000          0.0000          0.0000
  13.5400          3.9375          3.9375          3.9375          0.0000          0.0000          0.0000
  13.5600          3.9337          3.9337          3.9337          0.0000          0.0000          0.0000
  13.5800          3.9344          3.9344          3.9344          0.0000          0.0000          0.0000
  13.6000          3.9377          3.9377          3.9377          0.0000          0.0000          0.0000
  13.6200          3.9414          3.9414          3.9414          0.0000          0.0000          0.0000
  13.6400          3.9435          3.9435          3.9435          0.0000          0.0000          0.0000
  13.6600          3.9427          3.9427          3.9427          0.0000          0.0000          0.0000
  13.6800          3.9386          3.9386          3.9386          0.0000          0.0000          0.0000
  13.7000          3.9314          3.9314          3.9314          0.0000          0.0000          0.0000
  13.7200          3.9226          3.9226          3.9226          0.0000          0.0000          0.0000
  13.7400          3.9139          3.9139          3.9139          0.0000          0.0000          0.0000
  13.7600          3.9075          3.9075          3.9075          0.0000          0.0000          0.0000
  13.7800          3.9052          3.9052          3.9052          0.0000          0.0000          0.0000
  13.8000          3.9084          3.9084          3.9084          0.0000          0.0000          0.0000
  13.8200          3.9174          3.9174          3.9174          0.0000          0.0000          0.0000
  13.8400          3.9323          3.9323          3.9323          0.0000          0.0000          0.0000
  13.8600          3.9520          3.9520          3.9520          0.0000          0.0000          0.0000
  13.8800          3.9755          3.9755          3.9755          0.0000          0.0000          0.0000
  13.9000          4.0017          4.0017          4.0017          0.0000          0.0000          0.0000
  13.9200          4.0297          4.0297          4.0297          0.0000          0.0000          0.0000
  13.9400          4.0590          4.0590          4.0590          0.0000          0.0000          0.0000
  13.9600          4.0892          4.0892          4.0892          0.0000          0.0000          0.0000
  13.9800          4.1200          4.1200          4.1200          0.0000          0.0000          0.0000
  14.0000          4.1510          4.1510          4.1510          0.0000          0.0000          0.0000
  14.0200          4.1815          4.1815          4.1815          0.0000          0.0000          0.0000
  14.0400          4.2105          4.2105          4.2105          0.0000          0.0000          0.0000
  14.0600          4.2371          4.2371          4.2371          0.0000          0.0000          0.0000
  14.0800          4.2600          4.2600          4.2600          0.0000          0.0000          0.0000
  14.1000          4.2786          4.2786          4.2786          0.0000          0.0000          0.0000
  14.1200          4.2924          4.2924          4.2924          0.0000          0.0000          0.0000
  14.1400          4.3013          4.3013          4.3013          0.0000          0.0000          0.0000
  14.1600          4.3056          4.3056          4.3056          0.0000          0.0000          0.0000
  14.1800          4.3056          4.3056          4.3056          0.0000          0.0000          0.0000
  14.2000          4.3018          4.3018          4.3018          0.0000          0.0000          0.0000
  14.2200          4.2943          4.2943          4.2943          0.0000          0.0000          0.0000
  14.2400          4.2832          4.2832          4.2832          0.0000          0.0000          0.0000
  14.2600          4.2682          4.2682          4.2682          0.0000          0.0000          0.0000
  14.2800          4.2489          4.2489          4.2489          0.0000          0.0000          0.0000
  14.3000          4.2246          4.2246          4.2246          0.0000          0.0000          0.0000
  14.3200          4.1948          4.1948          4.1948          0.0000          0.0000          0.0000
  14.3400          4.1589          4.1589          4.1589          0.0000          0.0000          0.0000
  14.3600          4.1168          4.1168          4.1168          0.0000          0.0000          0.0000
  14.3800          4.0691          4.0691          4.0691          0.0000          0.0000          0.0000
  14.4000          4.0171          4.0171          4.0171          0.0000          0.0000          0.0000
  14.4200          3.9627          3.9627          3.9627          0.0000          0.0000          0.0000
  14.4400          3.9085          3.9085          3.9085          0.0000          0.0000          0.0000
  14.4600          3.8574          3.8574          3.8574          0.0000          0.0000          0.0000
  14.4800          3.8121          3.8121          3.8121          0.0000          0.0000          0.0000
  14.5000          3.7752          3.7752          3.7752          0.0000          0.0000          0.0000
  14.5200          3.7486          3.7486          3.7486          0.0000          0.0000          0.0000
  14.5400          3.7336          3.7336          3.7336          0.0000          0.0000          0.0000
  14.5600          3.7309          3.7309          3.7309          0.0000          0.0000          0.0000
  14.5800          3.7408          3.7408          3.7408          0.0000          0.0000          0.0000
  14.6000          3.7628          3.7628          3.7628          0.0000          0.0000          0.0000
  14.6200          3.7962          3.7962          3.7962          0.0000          0.0000          0.0000
  14.6400          3.8395          3.8395          3.8395          0.0000          0.0000          0.0000
  14.6600          3.8909          3.8909          3.8909          0.0000          0.0000          0.0000
  14.6800          3.9478          3.9478          3.9478          0.0000          0.0000          0.0000
  14.7000          4.0077          4.0077          4.0077          0.0000          0.0000          0.0000
  14.7200          4.0676          4.0676          4.0676          0.0000          0.0000          0.0000
  14.7400          4.1250          4.1250          4.1250          0.0000          0.0000          0.0000
  14.7600          4.1778          4.1778          4.1778          0.0000          0.0000          0.0000
  14.7800          4.2244          4.2244          4.2244          0.0000          0.0000          0.0000
  14.8000          4.2642          4.2642          4.2642          0.0000          0.0000          0.0000
  14.8200          4.2969          4.2969          4.2969          0.0000          0.0000          0.0000
  14.8400          4.3231          4.3231          4.3231          0.0000          0.0000          0.0000
  14.8600          4.3431          4.3431          4.3431          0.0000          0.0000          0.0000
  14.8800          4.3577          4.3577          4.3577          0.0000          0.0000          0.0000
  14.9000          4.3674          4.3674          4.3674          0.0000          0.0000          0.0000
  14.9200          4.3722          4.3722          4.3722          0.0000          0.0000          0.0000
  14.9400          4.3722          4.3722          4.3722          0.0000          0.0000          0.0000
  14.9600          4.3670          4.3670          4.3670          0.0000          0.0000          0.0000
  14.9800          4.3564          4.3564          4.3564          0.0000          0.0000          0.0000
  15.0000          4.3400          4.3400          4.3400          0.0000          0.0000          0.0000
  15.0200          4.3181          4.3181          4.3181          0.0000          0.0000          0.0000
  15.0400          4.2911          4.2911          4.2911          0.0000          0.0000          0.0000
  15.0600          4.2601          4.2601          4.2601          0.0000          0.0000          0.0000
  15.0800          4.2262          4.2262          4.2262          0.0000          0.0000          0.0000
  15.1000          4.1911          4.1911          4.1911          0.0000          0.0000          0.0000
  15.1200          4.1560          4.1560          4.1560          0.0000          0.0000          0.0000
  15.1400          4.1222          4.1222          4.1222          0.0000          0.0000          0.0000
  15.1600          4.0902          4.0902          4.0902          0.0000          0.0000          0.0000
  15.1800          4.0604          4.0604          4.0604          0.0000          0.0000          0.0000
  15.2000          4.0325          4.0325          4.0325          0.0000          0.0000          0.0000
  15.2200          4.0060          4.0060          4.0060          0.0000          0.0000          0.0000
  15.2400          3.9804          3.9804          3.9804          0.0000          0.0000          0.0000
  15.2600          3.9554          3.9554          3.9554          0.0000          0.0000          0.0000
  15.2800          3.9310          3.9310          3.9310          0.0000          0.0000          0.0000
  15.3000          3.9078          3.9078          3.9078          0.0000          0.0000          0.0000
  15.3200          3.8866          3.8866          3.8866          0.0000          0.0000          0.0000
  15.3400          3.8686          3.8686          3.8686          0.0000          0.0000          0.0000
  15.3600          3.8551          3.8551          3.8551          0.0000          0.0000          0.0000
  15.3800          3.8472          3.8472          3.8472          0.0000          0.0000          0.0000
  15.4000          3.8456          3.8456          3.8456          0.0000          0.0000          0.0000
  15.4200          3.8502          3.8502          3.8502          0.0000          0.0000          0.0000
  15.4400          3.8602          3.8602          3.8602          0.0000          0.0000          0.0000
  15.4600          3.8742          3.8742          3.8742          0.0000          0.0000          0.0000
  15.4800          3.8903          3.8903          3.8903          0.0000          0.0000          0.0000
  15.5000          3.9062          3.9062          3.9062          0.0000          0.0000          0.0000
  15.5200          3.9203          3.9203          3.9203          0.0000          0.0000          0.0000
  15.5400          3.9312          3.9312          3.9312          0.0000          0.0000          0.0000
  15.5600          3.9387          3.9387          3.9387          0.0000          0.0000          0.0000
  15.5800          3.9431          3.9431          3.9431          0.0000          0.0000          0.0000
  15.6000          3.9453          3.9453          3.9453          0.0000          0.0000          0.0000
  15.6200          3.9462          3.9462          3.9462          0.0000          0.0000          0.0000
  15.6400          3.9467          3.9467          3.9467          0.0000          0.0000          0.0000
  15.6600          3.9472          3.9472          3.9472          0.0000          0.0000          0.0000
  15.6800          3.9478          3.9478          3.9478          0.0000          0.0000          0.0000
  15.7000          3.9486          3.9486          3.9486          0.0000          0.0000          0.0000
  15.7200          3.9493          3.9493          3.9493          0.0000          0.0000          0.0000
  15.7400          3.9499          3.9499          3.9499          0.0000          0.0000          0.0000
  15.7600          3.9506          3.9506          3.9506          0.0000          0.0000          0.0000
  15.7800          3.9520          3.9520          3.9520          0.0000          0.0000          0.0000
  15.8000          3.9548          3.9548          3.9548          0.0000          0.0000          0.0000
  15.8200          3.9598          3.9598          3.9598          0.0000          0.0000          0.0000
  15.8400          3.9678          3.9678          3.9678          0.0000          0.0000          0.0000
  15.8600          3.9792          3.9792          3.9792          0.0000          0.0000          0.0000
  15.8800          3.9941          3.9941          3.9941          0.0000          0.0000          0.0000
  15.9000          4.0122          4.0122          4.0122          0.0000          0.0000          0.0000
  15.9200          4.0324          4.0324          4.0324          0.0000          0.0000          0.0000
  15.9400          4.0536          4.0536          4.0536          0.0000          0.0000          0.0000
  15.9600          4.0740          4.0740          4.0740          0.0000          0.0000          0.0000
  15.9800          4.0922          4.0922          4.0922          0.0000          0.0000          0.0000
  16.0000          4.1067          4.1067          4.1067          0.0000          0.0000          0.0000
  16.0200          4.1168          4.1168          4.1168          0.0000          0.0000          0.0000
  16.0400          4.1225          4.1225          4.1225          0.0000          0.0000          0.0000
  16.0600          4.1244          4.1244          4.1244          0.0000          0.0000          0.0000
  16.0800          4.1242          4.1242          4.1242          0.0000          0.0000          0.0000
  16.1000          4.1239          4.1239          4.1239          0.0000          0.0000          0.0000
  16.1200          4.1256          4.1256          4.1256          0.0000          0.0000          0.0000
  16.1400          4.1311          4.1311          4.1311          0.0000          0.0000          0.0000
  16.1600          4.1412          4.1412          4.1412          0.0000          0.0000          0.0000
  16.1800          4.1556          4.1556          4.1556          0.0000          0.0000          0.0000
  16.2000          4.1731          4.1731          4.1731          0.0000          0.0000          0.0000
  16.2200          4.1913          4.1913          4.1913          0.0000          0.0000          0.0000
  16.2400          4.2074          4.2074          4.2074          0.0000          0.0000          0.0000
  16.2600          4.2186          4.2186          4.2186          0.0000          0.0000          0.0000
  16.2800          4.2226          4.2226          4.2226          0.0000          0.0000          0.0000
  16.3000          4.2179          4.2179          4.2179          0.0000          0.0000          0.0000
  16.3200          4.2043          4.2043          4.2043          0.0000          0.0000          0.0000
  16.3400          4.1828          4.1828          4.1828          0.0000          0.0000          0.0000
  16.3600          4.1550          4.1550          4.1550          0.0000          0.0000          0.0000
  16.3800          4.1235          4.1235          4.1235          0.0000          0.0000          0.0000
  16.4000          4.0905          4.0905          4.0905          0.0000          0.0000          0.0000
  16.4200          4.0581          4.0581          4.0581          0.0000          0.0000          0.0000
  16.4400          4.0278          4.0278          4.0278          0.0000          0.0000          0.0000
  16.4600          4.0001          4.0001          4.0001          0.0000          0.0000          0.0000
  16.4800          3.9750          3.9750          3.9750          0.0000          0.0000          0.0000
  16.5000          3.9517          3.9517          3.9517          0.0000          0.0000          0.0000
  16.5200          3.9298          3.9298          3.9298          0.0000          0.0000          0.0000
  16.5400          3.9087          3.9087          3.9087          0.0000          0.0000          0.0000
  16.5600          3.8884          3.8884          3.8884          0.0000          0.0000          0.0000
  16.5800          3.8692          3.8692          3.8692          0.0000          0.0000          0.0000
  16.6000          3.8519          3.8519          3.8519          0.0000          0.0000          0.0000
  16.6200          3.8374          3.8374          3.8374          0.0000          0.0000          0.0000
  16.6400          3.8266          3.8266          3.8266          0.0000          0.0000          0.0000
  16.6600          3.8199          3.8199          3.8199          0.0000          0.0000          0.0000
  16.6800          3.8175          3.8175          3.8175          0.0000          0.0000          0.0000
  16.7000          3.8195          3.8195          3.8195          0.0000          0.0000          0.0000
  16.7200          3.8256          3.8256          3.8256          0.0000          0.0000          0.0000
  16.7400          3.8358          3.8358          3.8358          0.0000          0.0000          0.0000
  16.7600          3.8501          3.8501          3.8501          0.0000          0.0000          0.0000
  16.7800          3.8689          3.8689          3.8689          0.0000          0.0000          0.0000
  16.8000          3.8928          3.8928          3.8928          0.0000          0.0000          0.0000
  16.8200          3.9223          3.9223          3.9223          0.0000          0.0000          0.0000
  16.8400          3.9581          3.9581          3.9581          0.0000          0.0000          0.0000
  16.8600          4.0002          4.0002          4.0002          0.0000          0.0000          0.0000
  16.8800          4.0483          4.0483          4.0483          0.0000          0.0000          0.0000
  16.9000          4.1011          4.1011          4.1011          0.0000          0.0000          0.0000
  16.9200          4.1565          4.1565          4.1565          0.0000          0.0000          0.0000
  16.9400          4.2116          4.2116          4.2116          0.0000          0.0000          0.0000
  16.9600          4.2631          4.2631          4.2631          0.0000          0.0000          0.0000
  16.9800          4.3075          4.3075          4.3075          0.0000          0.0000          0.0000
  17.0000          4.3417          4.3417          4.3417          0.0000          0.0000          0.0000
  17.0200          4.3633          4.3633          4.3633          0.0000          0.0000          0.0000
  17.0400          4.3714          4.3714          4.3714          0.0000          0.0000          0.0000
  17.0600          4.3661          4.3661          4.3661          0.0000          0.0000          0.0000
  17.0800          4.3490          4.3490          4.3490          0.0000          0.0000          0.0000
  17.1000          4.3225          4.3225          4.3225          0.0000          0.0000          0.0000
  17.1200          4.2897          4.2897          4.2897          0.0000          0.0000          0.0000
  17.1400          4.2535          4.2535          4.2535          0.0000          0.0000          0.0000
  17.1600          4.2168          4.2168          4.2168          0.0000          0.0000          0.0000
  17.1800          4.1818          4.1818          4.1818          0.0000          0.0000          0.0000
  17.2000          4.1499          4.1499          4.1499          0.0000          0.0000          0.0000
  17.2200          4.1219          4.1219          4.1219          0.0000          0.0000          0.0000
  17.2400          4.0980          4.0980          4.0980          0.0000          0.0000          0.0000
  17.2600          4.0778          4.0778          4.0778          0.0000          0.0000          0.0000
  17.2800          4.0611          4.0611          4.0611          0.0000          0.0000          0.0000
  17.3000          4.0474          4.0474          4.0474          0.0000          0.0000          0.0000
  17.3200          4.0367          4.0367          4.0367          0.0000          0.0000          0.0000
  17.3400          4.0288          4.0288          4.0288          0.0000          0.0000          0.0000
  17.3600          4.0237          4.0237          4.0237          0.0000          0.0000          0.0000
  17.3800          4.0212          4.0212          4.0212          0.0000          0.0000          0.0000
  17.4000          4.0209          4.0209          4.0209          0.0000          0.0000          0.0000
  17.4200          4.0220          4.0220          4.0220          0.0000          0.0000          0.0000
  17.4400          4.0232          4.0232          4.0232          0.0000          0.0000          0.0000
  17.4600          4.0232          4.0232          4.0232          0.0000          0.0000          0.0000
  17.4800          4.0206          4.0206          4.0206          0.0000          0.0000          0.0000
  17.5000          4.0144          4.0144          4.0144          0.0000          0.0000          0.0000
  17.5200          4.0040          4.0040          4.0040          0.0000          0.0000          0.0000
  17.5400          3.9893          3.9893          3.9893          0.0000          0.0000          0.0000
  17.5600          3.9711          3.9711          3.9711          0.0000          0.0000          0.0000
  17.5800          3.9503          3.9503          3.9503          0.0000          0.0000          0.0000
  17.6000          3.9287          3.9287          3.9287          0.0000          0.0000          0.0000
  17.6200          3.9079          3.9079          3.9079          0.0000          0.0000          0.0000
  17.6400          3.8899          3.8899          3.8899          0.0000          0.0000          0.0000
  17.6600          3.8765          3.8765          3.8765          0.0000          0.0000          0.0000
  17.6800          3.8690          3.8690          3.8690          0.0000          0.0000          0.0000
  17.7000          3.8685          3.8685          3.8685          0.0000          0.0000          0.0000
  17.7200          3.8753          3.8753          3.8753          0.0000          0.0000          0.0000
  17.7400          3.8892          3.8892          3.8892          0.0000          0.0000          0.0000
  17.7600          3.9092          3.9092          3.9092          0.0000          0.0000          0.0000
  17.7800          3.9339          3.9339          3.9339          0.0000          0.0000          0.0000
  17.8000          3.9613          3.9613          3.9613          0.0000          0.0000          0.0000
  17.8200          3.9895          3.9895          3.9895          0.0000          0.0000          0.0000
  17.8400          4.0163          4.0163          4.0163          0.0000          0.0000          0.0000
  17.8600          4.0401          4.0401          4.0401          0.0000          0.0000          0.0000
  17.8800          4.0598          4.0598          4.0598          0.0000          0.0000          0.0000
  17.9000          4.0747          4.0747          4.0747          0.0000          0.0000          0.0000
  17.9200          4.0849          4.0849          4.0849          0.0000          0.0000          0.0000
  17.9400          4.0910          4.0910          4.0910          0.0000          0.0000          0.0000
  17.9600          4.0938          4.0938          4.0938          0.0000          0.0000          0.0000
  17.9800          4.0944          4.0944          4.0944          0.0000          0.0000          0.0000
  18.0000          4.0934          4.0934          4.0934          0.0000          0.0000          0.0000
  18.0200          4.0914          4.0914          4.0914          0.0000          0.0000          0.0000
  18.0400          4.0884          4.0884          4.0884          0.0000          0.0000          0.0000
  18.0600          4.0841          4.0841          4.0841          0.0000          0.0000          0.0000
  18.0800          4.0783          4.0783          4.0783          0.0000          0.0000          0.0000
  18.1000          4.0709          4.0709          4.0709          0.0000          0.0000          0.0000
  18.1200          4.0619          4.0619          4.0619          0.0000          0.0000          0.0000
  18.1400          4.0517          4.0517          4.0517          0.0000          0.0000          0.0000
  18.1600          4.0412          4.0412          4.0412          0.0000          0.0000          0.0000
  18.1800          4.0308          4.0308          4.0308          0.0000          0.0000          0.0000
  18.2000          4.0214          4.0214          4.0214          0.0000          0.0000          0.0000
  18.2200          4.0130          4.0130          4.0130          0.0000          0.0000          0.0000
  18.2400          4.0057          4.0057          4.0057          0.0000          0.0000          0.0000
  18.2600          3.9991          3.9991          3.9991          0.0000          0.0000          0.0000
  18.2800          3.9924          3.9924          3.9924          0.0000          0.0000          0.0000
  18.3000          3.9851          3.9851          3.9851          0.0000          0.0000          0.0000
  18.3200          3.9766          3.9766          3.9766          0.0000          0.0000          0.0000
  18.3400          3.9668          3.9668          3.9668          0.0000          0.0000          0.0000
  18.3600          3.9554          3.9554          3.9554          0.0000          0.0000          0.0000
  18.3800          3.9427          3.9427          3.9427          0.0000          0.0000          0.0000
  18.4000          3.9286          3.9286          3.9286          0.0000          0.0000          0.0000
  18.4200          3.9131          3.9131          3.9131          0.0000          0.0000          0.0000
  18.4400          3.8961          3.8961          3.8961          0.0000          0.0000          0.0000
  18.4600          3.8775          3.8775          3.8775          0.0000          0.0000          0.0000
  18.4800          3.8575          3.8575          3.8575          0.0000          0.0000          0.0000
  18.5000          3.8366          3.8366          3.8366          0.0000          0.0000          0.0000
  18.5200          3.8154          3.8154          3.8154          0.0000          0.0000          0.0000
  18.5400          3.7945          3.7945          3.7945          0.0000          0.0000          0.0000
  18.5600          3.7746          3.7746          3.7746          0.0000          0.0000          0.0000
  18.5800          3.7559          3.7559          3.7559          0.0000          0.0000          0.0000
  18.6000          3.7382          3.7382          3.7382          0.0000          0.0000          0.0000
  18.6200          3.7209          3.7209          3.7209          0.0000          0.0000          0.0000
  18.6400          3.7032          3.7032          3.7032          0.0000          0.0000          0.0000
  18.6600          3.6844          3.6844          3.6844          0.0000          0.0000          0.0000
  18.6800          3.6639          3.6639          3.6639          0.0000          0.0000          0.0000
  18.7000          3.6416          3.6416          3.6416          0.0000          0.0000          0.0000
  18.7200          3.6181          3.6181          3.6181          0.0000          0.0000          0.0000
  18.7400          3.5942          3.5942          3.5942          0.0000          0.0000          0.0000
  18.7600          3.5713          3.5713          3.5713          0.0000          0.0000          0.0000
  18.7800          3.5510          3.5510          3.5510          0.0000          0.0000          0.0000
  18.8000          3.5350          3.5350          3.5350          0.0000          0.0000          0.0000
  18.8200          3.5251          3.5251          3.5251          0.0000          0.0000          0.0000
  18.8400          3.5235          3.5235          3.5235          0.0000          0.0000          0.0000
  18.8600          3.5325          3.5325          3.5325          0.0000          0.0000          0.0000
  18.8800          3.5546          3.5546          3.5546          0.0000          0.0000          0.0000
  18.9000          3.5924          3.5924          3.5924          0.0000          0.0000          0.0000
  18.9200          3.6481          3.6481          3.6481          0.0000          0.0000          0.0000
  18.9400          3.7234          3.7234          3.7234          0.0000          0.0000          0.0000
  18.9600          3.8185          3.8185          3.8185          0.0000          0.0000          0.0000
  18.9800          3.9324          3.9324          3.9324          0.0000          0.0000          0.0000
  19.0000          4.0623          4.0623          4.0623          0.0000          0.0000          0.0000
  19.0200          4.2040          4.2040          4.2040          0.0000          0.0000          0.0000
  19.0400          4.3525          4.3525          4.3525          0.0000          0.0000          0.0000
  19.0600          4.5023          4.5023          4.5023          0.0000          0.0000          0.0000
  19.0800          4.6482          4.6482          4.6482          0.0000          0.0000          0.0000
  19.1000          4.7857          4.7857          4.7857          0.0000          0.0000          0.0000
  19.1200          4.9113          4.9113          4.9113          0.0000          0.0000          0.0000
  19.1400          5.0230          5.0230          5.0230          0.0000          0.0000          0.0000
  19.1600          5.1198          5.1198          5.1198          0.0000          0.0000          0.0000
  19.1800          5.2018          5.2018          5.2018          0.0000          0.0000          0.0000
  19.2000          5.2700          5.2700          5.2700          0.0000          0.0000          0.0000
  19.2200          5.3259          5.3259          5.3259          0.0000          0.0000          0.0000
  19.2400          5.3714          5.3714          5.3714          0.0000          0.0000          0.0000
  19.2600          5.4089          5.4089          5.4089          0.0000          0.0000          0.0000
  19.2800          5.4409          5.4409          5.4409          0.0000          0.0000          0.0000
  19.3000          5.4701          5.4701          5.4701          0.0000          0.0000          0.0000
  19.3200          5.4994          5.4994          5.4994          0.0000          0.0000          0.0000
  19.3400          5.5314          5.5314          5.5314          0.0000          0.0000          0.0000
  19.3600          5.5684          5.5684          5.5684          0.0000          0.0000          0.0000
  19.3800          5.6119          5.6119          5.6119          0.0000          0.0000          0.0000
  19.4000          5.6626          5.6626          5.6626          0.0000          0.0000          0.0000
  19.4200          5.7204          5.7204          5.7204          0.0000          0.0000          0.0000
  19.4400          5.7843          5.7843          5.7843          0.0000          0.0000          0.0000
  19.4600          5.8527          5.8527          5.8527          0.0000          0.0000          0.0000
  19.4800          5.9242          5.9242          5.9242          0.0000          0.0000          0.0000
  19.5000          5.9976          5.9976          5.9976          0.0000          0.0000          0.0000
  19.5200          6.0721          6.0721          6.0721          0.0000          0.0000          0.0000
  19.5400          6.1478          6.1478          6.1478          0.0000          0.0000          0.0000
  19.5600          6.2254          6.2254          6.2254          0.0000          0.0000          0.0000
  19.5800          6.3056          6.3056          6.3056          0.0000          0.0000          0.0000
  19.6000          6.3892          6.3892          6.3892          0.0000          0.0000          0.0000
  19.6200          6.4767          6.4767          6.4767          0.0000          0.0000          0.0000
  19.6400          6.5684          6.5684          6.5684          0.0000          0.0000          0.0000
  19.6600          6.6645          6.6645          6.6645          0.0000          0.0000          0.0000
  19.6800          6.7653          6.7653          6.7653          0.0000          0.0000          0.0000
  19.7000          6.8718          6.8718          6.8718          0.0000          0.0000          0.0000
  19.7200          6.9857          6.9857          6.9857          0.0000          0.0000          0.0000
  19.7400          7.1090          7.1090          7.1090          0.0000          0.0000          0.0000
  19.7600          7.2441          7.2441          7.2441          0.0000          0.0000          0.0000
  19.7800          7.3932          7.3932          7.3932          0.0000          0.0000          0.0000
  19.8000          7.5574          7.5574          7.5574          0.0000          0.0000          0.0000
  19.8200          7.7369          7.7369          7.7369          0.0000          0.0000          0.0000
  19.8400          7.9304          7.9304          7.9304          0.0000          0.0000          0.0000
  19.8600          8.1357          8.1357          8.1357          0.0000          0.0000          0.0000
  19.8800          8.3496          8.3496          8.3496          0.0000          0.0000          0.0000
  19.9000          8.5686          8.5686          8.5686          0.0000          0.0000          0.0000
  19.9200          8.7881          8.7881          8.7881          0.0000          0.0000          0.0000
  19.9400          9.0023          9.0023          9.0023          0.0000          0.0000          0.0000
  19.9600          9.2015          9.2015          9.2015          0.0000          0.0000          0.0000
  19.9800          9.3705          9.3705          9.3705          0.0000          0.0000          0.0000
  20.0000          9.4885          9.4885          9.4885          0.0000          0.0000          0.0000
