# E(eV)    DOS      Integrated DOS
-14.768924 0.000000 0.000000
-14.583924 0.000000 0.000000
-14.398924 0.000000 0.000000
-14.213924 0.000000 0.000000
-14.028924 0.000000 0.000000
-13.843924 0.000000 0.000000
-13.658924 0.000000 0.000000
-13.473924 0.000000 0.000000
-13.288924 0.000000 0.000000
-13.103924 0.000000 0.000000
-12.918924 0.000000 0.000000
-12.733924 0.000000 0.000000
-12.548924 0.000000 0.000000
-12.363924 0.000509 0.000094
-12.178924 0.034450 0.006469
-11.993924 0.135600 0.031560
-11.808924 0.206200 0.069720
-11.623924 0.258800 0.117600
-11.438924 0.304400 0.173900
-11.253924 0.346000 0.238000
-11.068924 0.386000 0.309400
-10.883924 0.427500 0.388500
-10.697924 0.470400 0.475500
-10.512924 0.510200 0.570000
-10.327924 0.559000 0.673400
-10.142924 0.629800 0.789900
-9.957924 0.721800 0.923500
-9.772924 0.851300 1.081000
-9.587924 0.827700 1.234000
-9.402924 0.750200 1.373000
-9.217924 0.707000 1.504000
-9.032924 0.620800 1.619000
-8.847924 0.592000 1.728000
-8.662924 0.461200 1.814000
-8.477924 0.455000 1.898000
-8.292924 0.302200 1.954000
-8.107924 0.223400 1.995000
-7.922924 0.073020 2.009000
-7.737924 0.229700 2.051000
-7.552924 0.250400 2.097000
-7.367924 0.485400 2.187000
-7.182924 0.688400 2.315000
-6.997924 1.400000 2.574000
-6.812924 1.014000 2.761000
-6.627924 0.798100 2.909000
-6.441924 0.614900 3.023000
-6.256924 0.579300 3.130000
-6.071924 0.479000 3.219000
-5.886924 0.453600 3.303000
-5.701924 0.383500 3.373000
-5.516924 0.337900 3.436000
-5.331924 0.338900 3.499000
-5.146924 0.293700 3.553000
-4.961924 0.253800 3.600000
-4.776924 0.242300 3.645000
-4.591924 0.464200 3.731000
-4.406924 0.916300 3.900000
-4.221924 1.154000 4.114000
-4.036924 1.069000 4.312000
-3.851924 1.012000 4.499000
-3.666924 1.054000 4.694000
-3.481924 1.088000 4.895000
-3.296924 1.187000 5.115000
-3.111924 1.371000 5.368000
-2.926924 1.494000 5.645000
-2.741924 1.461000 5.915000
-2.556924 1.403000 6.175000
-2.370924 1.356000 6.426000
-2.185924 1.290000 6.665000
-2.000924 1.256000 6.897000
-1.815924 1.221000 7.123000
-1.630924 1.166000 7.339000
-1.445924 1.048000 7.533000
-1.260924 0.778100 7.677000
-1.075924 0.580100 7.784000
-0.890924 0.443600 7.866000
-0.705924 0.337100 7.929000
-0.520924 0.235300 7.972000
-0.335924 0.129800 7.996000
-0.150924 0.020950 8.000000
0.034076 0.000122 8.000000
0.219076 0.001608 8.000000
0.404076 0.057410 8.011000
0.589076 0.213900 8.050000
0.774076 0.358800 8.117000
0.959076 0.449700 8.200000
1.144076 0.554800 8.303000
1.329076 0.674200 8.428000
1.514076 0.837600 8.583000
1.700076 1.009000 8.769000
1.885076 1.276000 9.005000
2.070076 1.557000 9.294000
2.255076 1.527000 9.576000
2.440076 1.316000 9.820000
2.625076 1.167000 10.040000
2.810076 1.075000 10.230000
2.995076 1.492000 10.510000
3.180076 2.089000 10.900000
3.365076 1.698000 11.210000
3.550076 1.643000 11.520000
3.735076 1.496000 11.790000
3.920076 1.223000 12.020000
4.105076 1.236000 12.250000
4.290076 1.212000 12.470000
4.475076 1.375000 12.730000
4.660076 1.203000 12.950000
4.845076 1.227000 13.180000
5.030076 1.183000 13.390000
5.215076 1.151000 13.610000
5.400076 1.164000 13.820000
5.585076 1.022000 14.010000
5.770076 1.109000 14.220000
5.956076 0.975900 14.400000
6.141076 1.051000 14.590000
6.326076 1.129000 14.800000
6.511076 1.209000 15.020000
6.696076 1.235000 15.250000
6.881076 1.075000 15.450000
7.066076 1.119000 15.660000
7.251076 1.171000 15.880000
7.436076 1.172000 16.090000
7.621076 1.448000 16.360000
7.806076 1.190000 16.580000
7.991076 1.221000 16.810000
8.176076 1.149000 17.020000
8.361076 1.075000 17.220000
8.546076 1.305000 17.460000
8.731076 1.290000 17.700000
8.916076 1.287000 17.940000
9.101076 1.470000 18.210000
9.286076 1.302000 18.450000
9.471076 1.345000 18.700000
9.656076 1.361000 18.950000
9.841076 1.240000 19.180000
10.027076 1.311000 19.420000
10.212076 1.176000 19.640000
10.397076 1.138000 19.850000
10.582076 1.243000 20.080000
10.767076 1.183000 20.300000
10.952076 1.363000 20.550000
11.137076 1.368000 20.800000
11.322076 1.134000 21.010000
11.507076 1.222000 21.240000
11.692076 1.325000 21.490000
11.877076 1.437000 21.750000
12.062076 1.543000 22.040000
12.247076 1.666000 22.350000
12.432076 1.532000 22.630000
12.617076 1.628000 22.930000
12.802076 1.431000 23.190000
12.987076 1.451000 23.460000
13.172076 1.426000 23.730000
13.357076 1.468000 24.000000
13.542076 1.620000 24.300000
13.727076 1.955000 24.660000
13.912076 1.783000 24.990000
14.097076 1.723000 25.310000
14.283076 1.378000 25.560000
14.468076 1.220000 25.790000
14.653076 1.271000 26.020000
14.838076 1.383000 26.280000
15.023076 1.552000 26.570000
15.208076 1.718000 26.890000
15.393076 1.590000 27.180000
15.578076 1.380000 27.440000
15.763076 1.319000 27.680000
15.948076 1.292000 27.920000
16.133076 1.278000 28.160000
16.318076 1.327000 28.400000
16.503076 1.477000 28.670000
16.688076 1.572000 28.960000
16.873076 1.588000 29.260000
17.058076 1.554000 29.550000
17.243076 1.451000 29.810000
17.428076 1.570000 30.110000
17.613076 1.685000 30.420000
17.798076 1.619000 30.720000
17.983076 1.699000 31.030000
18.168076 1.864000 31.380000
18.354076 1.890000 31.730000
18.539076 1.649000 32.030000
18.724076 1.673000 32.340000
18.909076 1.935000 32.700000
19.094076 1.999000 33.070000
19.279076 1.742000 33.390000
19.464076 1.764000 33.720000
19.649076 1.705000 34.030000
19.834076 1.648000 34.340000
20.019076 1.207000 34.560000
20.204076 1.402000 34.820000
20.389076 1.727000 35.140000
20.574076 1.556000 35.430000
20.759076 1.795000 35.760000
20.944076 1.690000 36.070000
21.129076 1.856000 36.420000
21.314076 1.723000 36.730000
21.499076 1.653000 37.040000
21.684076 1.883000 37.390000
21.869076 1.767000 37.720000
22.054076 1.744000 38.040000
22.239076 1.685000 38.350000
22.425076 1.693000 38.660000
22.610076 1.649000 38.970000
22.795076 1.752000 39.290000
22.980076 1.878000 39.640000
23.165076 1.716000 39.960000
23.350076 1.408000 40.220000
23.535076 1.584000 40.510000
23.720076 1.703000 40.830000
23.905076 1.629000 41.130000
24.090076 1.470000 41.400000
24.275076 1.532000 41.680000
24.460076 1.521000 41.960000
24.645076 1.341000 42.210000
24.830076 1.455000 42.480000
25.015076 1.470000 42.750000
25.200076 1.403000 43.010000
25.385076 1.493000 43.290000
25.570076 1.535000 43.570000
25.755076 1.750000 43.900000
25.940076 1.883000 44.250000
26.125076 2.013000 44.620000
26.310076 2.026000 44.990000
26.495076 1.615000 45.290000
26.681076 1.333000 45.540000
26.866076 1.289000 45.780000
27.051076 1.509000 46.060000
27.236076 2.055000 46.440000
27.421076 2.353000 46.870000
27.606076 1.978000 47.240000
27.791076 1.751000 47.560000
27.976076 1.657000 47.870000
28.161076 1.616000 48.170000
28.346076 1.422000 48.430000
28.531076 1.434000 48.700000
28.716076 1.605000 48.990000
28.901076 1.874000 49.340000
29.086076 2.182000 49.740000
29.271076 2.319000 50.170000
29.456076 2.090000 50.560000
29.641076 2.118000 50.950000
29.826076 1.944000 51.310000
30.011076 1.812000 51.650000
30.196076 1.970000 52.010000
30.381076 2.037000 52.390000
30.566076 1.821000 52.730000
30.752076 2.029000 53.100000
30.937076 1.884000 53.450000
31.122076 1.933000 53.810000
31.307076 2.017000 54.180000
31.492076 2.061000 54.560000
31.677076 1.884000 54.910000
31.862076 1.749000 55.230000
32.047076 1.806000 55.570000
32.232076 1.788000 55.900000
32.417076 2.048000 56.280000
32.602076 2.283000 56.700000
32.787076 2.106000 57.090000
32.972076 1.801000 57.420000
33.157076 1.610000 57.720000
33.342076 1.831000 58.060000
33.527076 1.762000 58.390000
33.712076 1.588000 58.680000
33.897076 1.420000 58.940000
34.082076 1.473000 59.220000
34.267076 1.181000 59.430000
34.452076 0.945300 59.610000
34.637076 0.651600 59.730000
34.823076 0.461100 59.820000
35.008076 0.243800 59.860000
35.193076 0.237800 59.900000
35.378076 0.120800 59.930000
35.563076 0.091390 59.940000
35.748076 0.080420 59.960000
35.933076 0.059710 59.970000
36.118076 0.019560 59.970000
36.303076 0.021430 59.980000
36.488076 0.018980 59.980000
36.673076 0.015480 59.980000
36.858076 0.017500 59.990000
37.043076 0.010550 59.990000
37.228076 0.007173 59.990000
37.413076 0.007687 59.990000
37.598076 0.017290 59.990000
37.783076 0.007216 60.000000
37.968076 0.000862 60.000000
38.153076 0.010920 60.000000
38.338076 0.009642 60.000000
38.523076 0.000397 60.000000
38.708076 0.000000 60.000000
38.893076 0.000000 60.000000
39.079076 0.000000 60.000000
39.264076 0.000000 60.000000
39.449076 0.000000 60.000000
39.634076 0.000000 60.000000
39.819076 0.000000 60.000000
40.004076 0.000000 60.000000
40.189076 0.000000 60.000000
40.374076 0.000000 60.000000
40.559076 0.000000 60.000000
40.744076 0.000000 60.000000
