### linear absorption coefficients(in units of 10^5 cm-1)
   0.0000          0.0000          0.0000          0.0000          0.0000          0.0000          0.0000
   0.0200          0.6448          0.6448          0.6448          0.0000          0.0000          0.0000
   0.0400          0.9146          0.9146          0.9146          0.0000          0.0000          0.0000
   0.0600          1.1234          1.1234          1.1234          0.0000          0.0000          0.0000
   0.0800          1.3008          1.3008          1.3008          0.0000          0.0000          0.0000
   0.1000          1.4581          1.4581          1.4581          0.0000          0.0000          0.0000
   0.1200          1.6014          1.6014          1.6014          0.0000          0.0000          0.0000
   0.1400          1.7339          1.7339          1.7339          0.0000          0.0000          0.0000
   0.1600          1.8579          1.8579          1.8579          0.0000          0.0000          0.0000
   0.1800          1.9750          1.9750          1.9750          0.0000          0.0000          0.0000
   0.2000          2.0862          2.0862          2.0862          0.0000          0.0000          0.0000
   0.2200          2.1923          2.1923          2.1923          0.0000          0.0000          0.0000
   0.2400          2.2941          2.2941          2.2941          0.0000          0.0000          0.0000
   0.2600          2.3920          2.3920          2.3920          0.0000          0.0000          0.0000
   0.2800          2.4864          2.4864          2.4864          0.0000          0.0000          0.0000
   0.3000          2.5776          2.5776          2.5776          0.0000          0.0000          0.0000
   0.3200          2.6659          2.6659          2.6659          0.0000          0.0000          0.0000
   0.3400          2.7515          2.7515          2.7515          0.0000          0.0000          0.0000
   0.3600          2.8346          2.8346          2.8346          0.0000          0.0000          0.0000
   0.3800          2.9154          2.9154          2.9154          0.0000          0.0000          0.0000
   0.4000          2.9939          2.9939          2.9939          0.0000          0.0000          0.0000
   0.4200          3.0704          3.0704          3.0704          0.0000          0.0000          0.0000
   0.4400          3.1448          3.1448          3.1448          0.0000          0.0000          0.0000
   0.4600          3.2174          3.2174          3.2174          0.0000          0.0000          0.0000
   0.4800          3.2881          3.2881          3.2881          0.0000          0.0000          0.0000
   0.5000          3.3570          3.3570          3.3570          0.0000          0.0000          0.0000
   0.5200          3.4242          3.4242          3.4242          0.0000          0.0000          0.0000
   0.5400          3.4898          3.4898          3.4898          0.0000          0.0000          0.0000
   0.5600          3.5537          3.5537          3.5537          0.0000          0.0000          0.0000
   0.5800          3.6160          3.6160          3.6160          0.0000          0.0000          0.0000
   0.6000          3.6768          3.6768          3.6768          0.0000          0.0000          0.0000
   0.6200          3.7361          3.7361          3.7361          0.0000          0.0000          0.0000
   0.6400          3.7938          3.7938          3.7938          0.0000          0.0000          0.0000
   0.6600          3.8501          3.8501          3.8501          0.0000          0.0000          0.0000
   0.6800          3.9050          3.9050          3.9050          0.0000          0.0000          0.0000
   0.7000          3.9584          3.9584          3.9584          0.0000          0.0000          0.0000
   0.7200          4.0103          4.0103          4.0103          0.0000          0.0000          0.0000
   0.7400          4.0609          4.0609          4.0609          0.0000          0.0000          0.0000
   0.7600          4.1101          4.1101          4.1101          0.0000          0.0000          0.0000
   0.7800          4.1579          4.1579          4.1579          0.0000          0.0000          0.0000
   0.8000          4.2043          4.2043          4.2043          0.0000          0.0000          0.0000
   0.8200          4.2494          4.2494          4.2494          0.0000          0.0000          0.0000
   0.8400          4.2931          4.2931          4.2931          0.0000          0.0000          0.0000
   0.8600          4.3354          4.3354          4.3354          0.0000          0.0000          0.0000
   0.8800          4.3764          4.3764          4.3764          0.0000          0.0000          0.0000
   0.9000          4.4161          4.4161          4.4161          0.0000          0.0000          0.0000
   0.9200          4.4544          4.4544          4.4544          0.0000          0.0000          0.0000
   0.9400          4.4913          4.4913          4.4913          0.0000          0.0000          0.0000
   0.9600          4.5270          4.5270          4.5270          0.0000          0.0000          0.0000
   0.9800          4.5612          4.5612          4.5612          0.0000          0.0000          0.0000
   1.0000          4.5941          4.5941          4.5941          0.0000          0.0000          0.0000
   1.0200          4.6257          4.6257          4.6257          0.0000          0.0000          0.0000
   1.0400          4.6559          4.6559          4.6559          0.0000          0.0000          0.0000
   1.0600          4.6848          4.6848          4.6848          0.0000          0.0000          0.0000
   1.0800          4.7123          4.7123          4.7123          0.0000          0.0000          0.0000
   1.1000          4.7385          4.7385          4.7385          0.0000          0.0000          0.0000
   1.1200          4.7632          4.7632          4.7632          0.0000          0.0000          0.0000
   1.1400          4.7866          4.7866          4.7866          0.0000          0.0000          0.0000
   1.1600          4.8086          4.8086          4.8086          0.0000          0.0000          0.0000
   1.1800          4.8292          4.8292          4.8292          0.0000          0.0000          0.0000
   1.2000          4.8484          4.8484          4.8484          0.0000          0.0000          0.0000
   1.2200          4.8662          4.8662          4.8662          0.0000          0.0000          0.0000
   1.2400          4.8826          4.8826          4.8826          0.0000          0.0000          0.0000
   1.2600          4.8975          4.8975          4.8975          0.0000          0.0000          0.0000
   1.2800          4.9109          4.9109          4.9109          0.0000          0.0000          0.0000
   1.3000          4.9229          4.9229          4.9229          0.0000          0.0000          0.0000
   1.3200          4.9334          4.9334          4.9334          0.0000          0.0000          0.0000
   1.3400          4.9423          4.9423          4.9423          0.0000          0.0000          0.0000
   1.3600          4.9498          4.9498          4.9498          0.0000          0.0000          0.0000
   1.3800          4.9557          4.9557          4.9557          0.0000          0.0000          0.0000
   1.4000          4.9600          4.9600          4.9600          0.0000          0.0000          0.0000
   1.4200          4.9628          4.9628          4.9628          0.0000          0.0000          0.0000
   1.4400          4.9639          4.9639          4.9639          0.0000          0.0000          0.0000
   1.4600          4.9634          4.9634          4.9634          0.0000          0.0000          0.0000
   1.4800          4.9614          4.9614          4.9614          0.0000          0.0000          0.0000
   1.5000          4.9576          4.9576          4.9576          0.0000          0.0000          0.0000
   1.5200          4.9522          4.9522          4.9522          0.0000          0.0000          0.0000
   1.5400          4.9452          4.9452          4.9452          0.0000          0.0000          0.0000
   1.5600          4.9366          4.9366          4.9366          0.0000          0.0000          0.0000
   1.5800          4.9265          4.9265          4.9265          0.0000          0.0000          0.0000
   1.6000          4.9148          4.9148          4.9148          0.0000          0.0000          0.0000
   1.6200          4.9018          4.9018          4.9018          0.0000          0.0000          0.0000
   1.6400          4.8875          4.8875          4.8875          0.0000          0.0000          0.0000
   1.6600          4.8721          4.8721          4.8721          0.0000          0.0000          0.0000
   1.6800          4.8560          4.8560          4.8560          0.0000          0.0000          0.0000
   1.7000          4.8393          4.8393          4.8393          0.0000          0.0000          0.0000
   1.7200          4.8227          4.8227          4.8227          0.0000          0.0000          0.0000
   1.7400          4.8068          4.8068          4.8068          0.0000          0.0000          0.0000
   1.7600          4.7923          4.7923          4.7923          0.0000          0.0000          0.0000
   1.7800          4.7802          4.7802          4.7802          0.0000          0.0000          0.0000
   1.8000          4.7717          4.7717          4.7717          0.0000          0.0000          0.0000
   1.8200          4.7679          4.7679          4.7679          0.0000          0.0000          0.0000
   1.8400          4.7700          4.7700          4.7700          0.0000          0.0000          0.0000
   1.8600          4.7789          4.7789          4.7789          0.0000          0.0000          0.0000
   1.8800          4.7949          4.7949          4.7949          0.0000          0.0000          0.0000
   1.9000          4.8179          4.8179          4.8179          0.0000          0.0000          0.0000
   1.9200          4.8470          4.8470          4.8470          0.0000          0.0000          0.0000
   1.9400          4.8810          4.8810          4.8810          0.0000          0.0000          0.0000
   1.9600          4.9181          4.9181          4.9181          0.0000          0.0000          0.0000
   1.9800          4.9567          4.9567          4.9567          0.0000          0.0000          0.0000
   2.0000          4.9954          4.9954          4.9954          0.0000          0.0000          0.0000
   2.0200          5.0337          5.0337          5.0337          0.0000          0.0000          0.0000
   2.0400          5.0716          5.0716          5.0716          0.0000          0.0000          0.0000
   2.0600          5.1102          5.1102          5.1102          0.0000          0.0000          0.0000
   2.0800          5.1508          5.1508          5.1508          0.0000          0.0000          0.0000
   2.1000          5.1953          5.1953          5.1953          0.0000          0.0000          0.0000
   2.1200          5.2451          5.2451          5.2451          0.0000          0.0000          0.0000
   2.1400          5.3013          5.3013          5.3013          0.0000          0.0000          0.0000
   2.1600          5.3646          5.3646          5.3646          0.0000          0.0000          0.0000
   2.1800          5.4350          5.4350          5.4350          0.0000          0.0000          0.0000
   2.2000          5.5120          5.5120          5.5120          0.0000          0.0000          0.0000
   2.2200          5.5948          5.5948          5.5948          0.0000          0.0000          0.0000
   2.2400          5.6822          5.6822          5.6822          0.0000          0.0000          0.0000
   2.2600          5.7729          5.7729          5.7729          0.0000          0.0000          0.0000
   2.2800          5.8656          5.8656          5.8656          0.0000          0.0000          0.0000
   2.3000          5.9586          5.9586          5.9586          0.0000          0.0000          0.0000
   2.3200          6.0504          6.0504          6.0504          0.0000          0.0000          0.0000
   2.3400          6.1392          6.1392          6.1392          0.0000          0.0000          0.0000
   2.3600          6.2231          6.2231          6.2231          0.0000          0.0000          0.0000
   2.3800          6.3005          6.3005          6.3005          0.0000          0.0000          0.0000
   2.4000          6.3698          6.3698          6.3698          0.0000          0.0000          0.0000
   2.4200          6.4296          6.4296          6.4296          0.0000          0.0000          0.0000
   2.4400          6.4792          6.4792          6.4792          0.0000          0.0000          0.0000
   2.4600          6.5186          6.5186          6.5186          0.0000          0.0000          0.0000
   2.4800          6.5481          6.5481          6.5481          0.0000          0.0000          0.0000
   2.5000          6.5689          6.5689          6.5689          0.0000          0.0000          0.0000
   2.5200          6.5824          6.5824          6.5824          0.0000          0.0000          0.0000
   2.5400          6.5905          6.5905          6.5905          0.0000          0.0000          0.0000
   2.5600          6.5952          6.5952          6.5952          0.0000          0.0000          0.0000
   2.5800          6.5986          6.5986          6.5986          0.0000          0.0000          0.0000
   2.6000          6.6030          6.6030          6.6030          0.0000          0.0000          0.0000
   2.6200          6.6106          6.6106          6.6106          0.0000          0.0000          0.0000
   2.6400          6.6232          6.6232          6.6232          0.0000          0.0000          0.0000
   2.6600          6.6424          6.6424          6.6424          0.0000          0.0000          0.0000
   2.6800          6.6694          6.6694          6.6694          0.0000          0.0000          0.0000
   2.7000          6.7047          6.7047          6.7047          0.0000          0.0000          0.0000
   2.7200          6.7481          6.7481          6.7481          0.0000          0.0000          0.0000
   2.7400          6.7992          6.7992          6.7992          0.0000          0.0000          0.0000
   2.7600          6.8567          6.8567          6.8567          0.0000          0.0000          0.0000
   2.7800          6.9189          6.9189          6.9189          0.0000          0.0000          0.0000
   2.8000          6.9838          6.9838          6.9838          0.0000          0.0000          0.0000
   2.8200          7.0492          7.0492          7.0492          0.0000          0.0000          0.0000
   2.8400          7.1125          7.1125          7.1125          0.0000          0.0000          0.0000
   2.8600          7.1711          7.1711          7.1711          0.0000          0.0000          0.0000
   2.8800          7.2225          7.2225          7.2225          0.0000          0.0000          0.0000
   2.9000          7.2642          7.2642          7.2642          0.0000          0.0000          0.0000
   2.9200          7.2947          7.2947          7.2947          0.0000          0.0000          0.0000
   2.9400          7.3131          7.3131          7.3131          0.0000          0.0000          0.0000
   2.9600          7.3199          7.3199          7.3199          0.0000          0.0000          0.0000
   2.9800          7.3167          7.3167          7.3167          0.0000          0.0000          0.0000
   3.0000          7.3061          7.3061          7.3061          0.0000          0.0000          0.0000
   3.0200          7.2915          7.2915          7.2915          0.0000          0.0000          0.0000
   3.0400          7.2763          7.2763          7.2763          0.0000          0.0000          0.0000
   3.0600          7.2638          7.2638          7.2638          0.0000          0.0000          0.0000
   3.0800          7.2568          7.2568          7.2568          0.0000          0.0000          0.0000
   3.1000          7.2573          7.2573          7.2573          0.0000          0.0000          0.0000
   3.1200          7.2664          7.2664          7.2664          0.0000          0.0000          0.0000
   3.1400          7.2850          7.2850          7.2850          0.0000          0.0000          0.0000
   3.1600          7.3138          7.3138          7.3138          0.0000          0.0000          0.0000
   3.1800          7.3538          7.3538          7.3538          0.0000          0.0000          0.0000
   3.2000          7.4059          7.4059          7.4059          0.0000          0.0000          0.0000
   3.2200          7.4712          7.4712          7.4712          0.0000          0.0000          0.0000
   3.2400          7.5501          7.5501          7.5501          0.0000          0.0000          0.0000
   3.2600          7.6417          7.6417          7.6417          0.0000          0.0000          0.0000
   3.2800          7.7432          7.7432          7.7432          0.0000          0.0000          0.0000
   3.3000          7.8498          7.8498          7.8498          0.0000          0.0000          0.0000
   3.3200          7.9558          7.9558          7.9558          0.0000          0.0000          0.0000
   3.3400          8.0546          8.0546          8.0546          0.0000          0.0000          0.0000
   3.3600          8.1411          8.1411          8.1411          0.0000          0.0000          0.0000
   3.3800          8.2120          8.2120          8.2120          0.0000          0.0000          0.0000
   3.4000          8.2669          8.2669          8.2669          0.0000          0.0000          0.0000
   3.4200          8.3083          8.3083          8.3083          0.0000          0.0000          0.0000
   3.4400          8.3408          8.3408          8.3408          0.0000          0.0000          0.0000
   3.4600          8.3697          8.3697          8.3697          0.0000          0.0000          0.0000
   3.4800          8.3998          8.3998          8.3998          0.0000          0.0000          0.0000
   3.5000          8.4337          8.4337          8.4337          0.0000          0.0000          0.0000
   3.5200          8.4717          8.4717          8.4717          0.0000          0.0000          0.0000
   3.5400          8.5113          8.5113          8.5113          0.0000          0.0000          0.0000
   3.5600          8.5486          8.5486          8.5486          0.0000          0.0000          0.0000
   3.5800          8.5789          8.5789          8.5789          0.0000          0.0000          0.0000
   3.6000          8.5980          8.5980          8.5980          0.0000          0.0000          0.0000
   3.6200          8.6033          8.6033          8.6033          0.0000          0.0000          0.0000
   3.6400          8.5939          8.5939          8.5939          0.0000          0.0000          0.0000
   3.6600          8.5710          8.5710          8.5710          0.0000          0.0000          0.0000
   3.6800          8.5377          8.5377          8.5377          0.0000          0.0000          0.0000
   3.7000          8.4986          8.4986          8.4986          0.0000          0.0000          0.0000
   3.7200          8.4589          8.4589          8.4589          0.0000          0.0000          0.0000
   3.7400          8.4238          8.4238          8.4238          0.0000          0.0000          0.0000
   3.7600          8.3982          8.3982          8.3982          0.0000          0.0000          0.0000
   3.7800          8.3861          8.3861          8.3861          0.0000          0.0000          0.0000
   3.8000          8.3902          8.3902          8.3902          0.0000          0.0000          0.0000
   3.8200          8.4124          8.4124          8.4124          0.0000          0.0000          0.0000
   3.8400          8.4532          8.4532          8.4532          0.0000          0.0000          0.0000
   3.8600          8.5119          8.5119          8.5119          0.0000          0.0000          0.0000
   3.8800          8.5863          8.5863          8.5863          0.0000          0.0000          0.0000
   3.9000          8.6732          8.6732          8.6732          0.0000          0.0000          0.0000
   3.9200          8.7678          8.7678          8.7678          0.0000          0.0000          0.0000
   3.9400          8.8646          8.8646          8.8646          0.0000          0.0000          0.0000
   3.9600          8.9576          8.9576          8.9576          0.0000          0.0000          0.0000
   3.9800          9.0412          9.0412          9.0412          0.0000          0.0000          0.0000
   4.0000          9.1104          9.1104          9.1104          0.0000          0.0000          0.0000
   4.0200          9.1615          9.1615          9.1615          0.0000          0.0000          0.0000
   4.0400          9.1926          9.1926          9.1926          0.0000          0.0000          0.0000
   4.0600          9.2036          9.2036          9.2036          0.0000          0.0000          0.0000
   4.0800          9.1957          9.1957          9.1957          0.0000          0.0000          0.0000
   4.1000          9.1719          9.1719          9.1719          0.0000          0.0000          0.0000
   4.1200          9.1357          9.1357          9.1357          0.0000          0.0000          0.0000
   4.1400          9.0909          9.0909          9.0909          0.0000          0.0000          0.0000
   4.1600          9.0413          9.0413          9.0413          0.0000          0.0000          0.0000
   4.1800          8.9899          8.9899          8.9899          0.0000          0.0000          0.0000
   4.2000          8.9388          8.9388          8.9388          0.0000          0.0000          0.0000
   4.2200          8.8892          8.8892          8.8892          0.0000          0.0000          0.0000
   4.2400          8.8422          8.8422          8.8422          0.0000          0.0000          0.0000
   4.2600          8.7985          8.7985          8.7985          0.0000          0.0000          0.0000
   4.2800          8.7596          8.7596          8.7596          0.0000          0.0000          0.0000
   4.3000          8.7273          8.7273          8.7273          0.0000          0.0000          0.0000
   4.3200          8.7042          8.7042          8.7042          0.0000          0.0000          0.0000
   4.3400          8.6929          8.6929          8.6929          0.0000          0.0000          0.0000
   4.3600          8.6950          8.6950          8.6950          0.0000          0.0000          0.0000
   4.3800          8.7109          8.7109          8.7109          0.0000          0.0000          0.0000
   4.4000          8.7394          8.7394          8.7394          0.0000          0.0000          0.0000
   4.4200          8.7774          8.7774          8.7774          0.0000          0.0000          0.0000
   4.4400          8.8205          8.8205          8.8205          0.0000          0.0000          0.0000
   4.4600          8.8638          8.8638          8.8638          0.0000          0.0000          0.0000
   4.4800          8.9028          8.9028          8.9028          0.0000          0.0000          0.0000
   4.5000          8.9336          8.9336          8.9336          0.0000          0.0000          0.0000
   4.5200          8.9538          8.9538          8.9538          0.0000          0.0000          0.0000
   4.5400          8.9624          8.9624          8.9624          0.0000          0.0000          0.0000
   4.5600          8.9593          8.9593          8.9593          0.0000          0.0000          0.0000
   4.5800          8.9451          8.9451          8.9451          0.0000          0.0000          0.0000
   4.6000          8.9207          8.9207          8.9207          0.0000          0.0000          0.0000
   4.6200          8.8873          8.8873          8.8873          0.0000          0.0000          0.0000
   4.6400          8.8459          8.8459          8.8459          0.0000          0.0000          0.0000
   4.6600          8.7984          8.7984          8.7984          0.0000          0.0000          0.0000
   4.6800          8.7470          8.7470          8.7470          0.0000          0.0000          0.0000
   4.7000          8.6950          8.6950          8.6950          0.0000          0.0000          0.0000
   4.7200          8.6459          8.6459          8.6459          0.0000          0.0000          0.0000
   4.7400          8.6035          8.6035          8.6035          0.0000          0.0000          0.0000
   4.7600          8.5710          8.5710          8.5710          0.0000          0.0000          0.0000
   4.7800          8.5506          8.5506          8.5506          0.0000          0.0000          0.0000
   4.8000          8.5433          8.5433          8.5433          0.0000          0.0000          0.0000
   4.8200          8.5488          8.5488          8.5488          0.0000          0.0000          0.0000
   4.8400          8.5658          8.5658          8.5658          0.0000          0.0000          0.0000
   4.8600          8.5924          8.5924          8.5924          0.0000          0.0000          0.0000
   4.8800          8.6262          8.6262          8.6262          0.0000          0.0000          0.0000
   4.9000          8.6643          8.6643          8.6643          0.0000          0.0000          0.0000
   4.9200          8.7040          8.7040          8.7040          0.0000          0.0000          0.0000
   4.9400          8.7424          8.7424          8.7424          0.0000          0.0000          0.0000
   4.9600          8.7764          8.7764          8.7764          0.0000          0.0000          0.0000
   4.9800          8.8036          8.8036          8.8036          0.0000          0.0000          0.0000
   5.0000          8.8219          8.8219          8.8219          0.0000          0.0000          0.0000
   5.0200          8.8302          8.8302          8.8302          0.0000          0.0000          0.0000
   5.0400          8.8280          8.8280          8.8280          0.0000          0.0000          0.0000
   5.0600          8.8159          8.8159          8.8159          0.0000          0.0000          0.0000
   5.0800          8.7950          8.7950          8.7950          0.0000          0.0000          0.0000
   5.1000          8.7664          8.7664          8.7664          0.0000          0.0000          0.0000
   5.1200          8.7316          8.7316          8.7316          0.0000          0.0000          0.0000
   5.1400          8.6919          8.6919          8.6919          0.0000          0.0000          0.0000
   5.1600          8.6486          8.6486          8.6486          0.0000          0.0000          0.0000
   5.1800          8.6034          8.6034          8.6034          0.0000          0.0000          0.0000
   5.2000          8.5584          8.5584          8.5584          0.0000          0.0000          0.0000
   5.2200          8.5160          8.5160          8.5160          0.0000          0.0000          0.0000
   5.2400          8.4790          8.4790          8.4790          0.0000          0.0000          0.0000
   5.2600          8.4498          8.4498          8.4498          0.0000          0.0000          0.0000
   5.2800          8.4301          8.4301          8.4301          0.0000          0.0000          0.0000
   5.3000          8.4204          8.4204          8.4204          0.0000          0.0000          0.0000
   5.3200          8.4202          8.4202          8.4202          0.0000          0.0000          0.0000
   5.3400          8.4283          8.4283          8.4283          0.0000          0.0000          0.0000
   5.3600          8.4427          8.4427          8.4427          0.0000          0.0000          0.0000
   5.3800          8.4617          8.4617          8.4617          0.0000          0.0000          0.0000
   5.4000          8.4837          8.4837          8.4837          0.0000          0.0000          0.0000
   5.4200          8.5077          8.5077          8.5077          0.0000          0.0000          0.0000
   5.4400          8.5328          8.5328          8.5328          0.0000          0.0000          0.0000
   5.4600          8.5587          8.5587          8.5587          0.0000          0.0000          0.0000
   5.4800          8.5849          8.5849          8.5849          0.0000          0.0000          0.0000
   5.5000          8.6111          8.6111          8.6111          0.0000          0.0000          0.0000
   5.5200          8.6371          8.6371          8.6371          0.0000          0.0000          0.0000
   5.5400          8.6625          8.6625          8.6625          0.0000          0.0000          0.0000
   5.5600          8.6873          8.6873          8.6873          0.0000          0.0000          0.0000
   5.5800          8.7110          8.7110          8.7110          0.0000          0.0000          0.0000
   5.6000          8.7334          8.7334          8.7334          0.0000          0.0000          0.0000
   5.6200          8.7539          8.7539          8.7539          0.0000          0.0000          0.0000
   5.6400          8.7716          8.7716          8.7716          0.0000          0.0000          0.0000
   5.6600          8.7854          8.7854          8.7854          0.0000          0.0000          0.0000
   5.6800          8.7941          8.7941          8.7941          0.0000          0.0000          0.0000
   5.7000          8.7967          8.7967          8.7967          0.0000          0.0000          0.0000
   5.7200          8.7921          8.7921          8.7921          0.0000          0.0000          0.0000
   5.7400          8.7802          8.7802          8.7802          0.0000          0.0000          0.0000
   5.7600          8.7611          8.7611          8.7611          0.0000          0.0000          0.0000
   5.7800          8.7359          8.7359          8.7359          0.0000          0.0000          0.0000
   5.8000          8.7068          8.7068          8.7068          0.0000          0.0000          0.0000
   5.8200          8.6761          8.6761          8.6761          0.0000          0.0000          0.0000
   5.8400          8.6468          8.6468          8.6468          0.0000          0.0000          0.0000
   5.8600          8.6218          8.6218          8.6218          0.0000          0.0000          0.0000
   5.8800          8.6034          8.6034          8.6034          0.0000          0.0000          0.0000
   5.9000          8.5934          8.5934          8.5934          0.0000          0.0000          0.0000
   5.9200          8.5929          8.5929          8.5929          0.0000          0.0000          0.0000
   5.9400          8.6020          8.6020          8.6020          0.0000          0.0000          0.0000
   5.9600          8.6205          8.6205          8.6205          0.0000          0.0000          0.0000
   5.9800          8.6472          8.6472          8.6472          0.0000          0.0000          0.0000
   6.0000          8.6808          8.6808          8.6808          0.0000          0.0000          0.0000
   6.0200          8.7195          8.7195          8.7195          0.0000          0.0000          0.0000
   6.0400          8.7613          8.7613          8.7613          0.0000          0.0000          0.0000
   6.0600          8.8045          8.8045          8.8045          0.0000          0.0000          0.0000
   6.0800          8.8473          8.8473          8.8473          0.0000          0.0000          0.0000
   6.1000          8.8883          8.8883          8.8883          0.0000          0.0000          0.0000
   6.1200          8.9266          8.9266          8.9266          0.0000          0.0000          0.0000
   6.1400          8.9611          8.9611          8.9611          0.0000          0.0000          0.0000
   6.1600          8.9909          8.9909          8.9909          0.0000          0.0000          0.0000
   6.1800          9.0155          9.0155          9.0155          0.0000          0.0000          0.0000
   6.2000          9.0341          9.0341          9.0341          0.0000          0.0000          0.0000
   6.2200          9.0469          9.0469          9.0469          0.0000          0.0000          0.0000
   6.2400          9.0549          9.0549          9.0549          0.0000          0.0000          0.0000
   6.2600          9.0602          9.0602          9.0602          0.0000          0.0000          0.0000
   6.2800          9.0662          9.0662          9.0662          0.0000          0.0000          0.0000
   6.3000          9.0771          9.0771          9.0771          0.0000          0.0000          0.0000
   6.3200          9.0973          9.0973          9.0973          0.0000          0.0000          0.0000
   6.3400          9.1308          9.1308          9.1308          0.0000          0.0000          0.0000
   6.3600          9.1803          9.1803          9.1803          0.0000          0.0000          0.0000
   6.3800          9.2471          9.2471          9.2471          0.0000          0.0000          0.0000
   6.4000          9.3304          9.3304          9.3304          0.0000          0.0000          0.0000
   6.4200          9.4281          9.4281          9.4281          0.0000          0.0000          0.0000
   6.4400          9.5369          9.5369          9.5369          0.0000          0.0000          0.0000
   6.4600          9.6524          9.6524          9.6524          0.0000          0.0000          0.0000
   6.4800          9.7705          9.7705          9.7705          0.0000          0.0000          0.0000
   6.5000          9.8868          9.8868          9.8868          0.0000          0.0000          0.0000
   6.5200          9.9981          9.9981          9.9981          0.0000          0.0000          0.0000
   6.5400         10.1014         10.1014         10.1014          0.0000          0.0000          0.0000
   6.5600         10.1953         10.1953         10.1953          0.0000          0.0000          0.0000
   6.5800         10.2791         10.2791         10.2791          0.0000          0.0000          0.0000
   6.6000         10.3535         10.3535         10.3535          0.0000          0.0000          0.0000
   6.6200         10.4199         10.4199         10.4199          0.0000          0.0000          0.0000
   6.6400         10.4805         10.4805         10.4805          0.0000          0.0000          0.0000
   6.6600         10.5375         10.5375         10.5375          0.0000          0.0000          0.0000
   6.6800         10.5927         10.5927         10.5927          0.0000          0.0000          0.0000
   6.7000         10.6473         10.6473         10.6473          0.0000          0.0000          0.0000
   6.7200         10.7012         10.7012         10.7012          0.0000          0.0000          0.0000
   6.7400         10.7534         10.7534         10.7534          0.0000          0.0000          0.0000
   6.7600         10.8024         10.8024         10.8024          0.0000          0.0000          0.0000
   6.7800         10.8468         10.8468         10.8468          0.0000          0.0000          0.0000
   6.8000         10.8857         10.8857         10.8857          0.0000          0.0000          0.0000
   6.8200         10.9196         10.9196         10.9196          0.0000          0.0000          0.0000
   6.8400         10.9500         10.9500         10.9500          0.0000          0.0000          0.0000
   6.8600         10.9794         10.9794         10.9794          0.0000          0.0000          0.0000
   6.8800         11.0108         11.0108         11.0108          0.0000          0.0000          0.0000
   6.9000         11.0463         11.0463         11.0463          0.0000          0.0000          0.0000
   6.9200         11.0871         11.0871         11.0871          0.0000          0.0000          0.0000
   6.9400         11.1329         11.1329         11.1329          0.0000          0.0000          0.0000
   6.9600         11.1818         11.1818         11.1818          0.0000          0.0000          0.0000
   6.9800         11.2310         11.2310         11.2310          0.0000          0.0000          0.0000
   7.0000         11.2774         11.2774         11.2774          0.0000          0.0000          0.0000
   7.0200         11.3181         11.3181         11.3181          0.0000          0.0000          0.0000
   7.0400         11.3515         11.3515         11.3515          0.0000          0.0000          0.0000
   7.0600         11.3776         11.3776         11.3776          0.0000          0.0000          0.0000
   7.0800         11.3983         11.3983         11.3983          0.0000          0.0000          0.0000
   7.1000         11.4174         11.4174         11.4174          0.0000          0.0000          0.0000
   7.1200         11.4397         11.4397         11.4397          0.0000          0.0000          0.0000
   7.1400         11.4703         11.4703         11.4703          0.0000          0.0000          0.0000
   7.1600         11.5136         11.5136         11.5136          0.0000          0.0000          0.0000
   7.1800         11.5720         11.5720         11.5720          0.0000          0.0000          0.0000
   7.2000         11.6458         11.6458         11.6458          0.0000          0.0000          0.0000
   7.2200         11.7328         11.7328         11.7328          0.0000          0.0000          0.0000
   7.2400         11.8289         11.8289         11.8289          0.0000          0.0000          0.0000
   7.2600         11.9294         11.9294         11.9294          0.0000          0.0000          0.0000
   7.2800         12.0295         12.0295         12.0295          0.0000          0.0000          0.0000
   7.3000         12.1253         12.1253         12.1253          0.0000          0.0000          0.0000
   7.3200         12.2141         12.2141         12.2141          0.0000          0.0000          0.0000
   7.3400         12.2948         12.2948         12.2948          0.0000          0.0000          0.0000
   7.3600         12.3672         12.3672         12.3672          0.0000          0.0000          0.0000
   7.3800         12.4315         12.4315         12.4315          0.0000          0.0000          0.0000
   7.4000         12.4883         12.4883         12.4883          0.0000          0.0000          0.0000
   7.4200         12.5380         12.5380         12.5380          0.0000          0.0000          0.0000
   7.4400         12.5813         12.5813         12.5813          0.0000          0.0000          0.0000
   7.4600         12.6190         12.6190         12.6190          0.0000          0.0000          0.0000
   7.4800         12.6526         12.6526         12.6526          0.0000          0.0000          0.0000
   7.5000         12.6838         12.6838         12.6838          0.0000          0.0000          0.0000
   7.5200         12.7146         12.7146         12.7146          0.0000          0.0000          0.0000
   7.5400         12.7471         12.7471         12.7471          0.0000          0.0000          0.0000
   7.5600         12.7828         12.7828         12.7828          0.0000          0.0000          0.0000
   7.5800         12.8226         12.8226         12.8226          0.0000          0.0000          0.0000
   7.6000         12.8671         12.8671         12.8671          0.0000          0.0000          0.0000
   7.6200         12.9157         12.9157         12.9157          0.0000          0.0000          0.0000
   7.6400         12.9675         12.9675         12.9675          0.0000          0.0000          0.0000
   7.6600         13.0209         13.0209         13.0209          0.0000          0.0000          0.0000
   7.6800         13.0742         13.0742         13.0742          0.0000          0.0000          0.0000
   7.7000         13.1247         13.1247         13.1247          0.0000          0.0000          0.0000
   7.7200         13.1699         13.1699         13.1699          0.0000          0.0000          0.0000
   7.7400         13.2070         13.2070         13.2070          0.0000          0.0000          0.0000
   7.7600         13.2336         13.2336         13.2336          0.0000          0.0000          0.0000
   7.7800         13.2476         13.2476         13.2476          0.0000          0.0000          0.0000
   7.8000         13.2481         13.2481         13.2481          0.0000          0.0000          0.0000
   7.8200         13.2353         13.2353         13.2353          0.0000          0.0000          0.0000
   7.8400         13.2107         13.2107         13.2107          0.0000          0.0000          0.0000
   7.8600         13.1775         13.1775         13.1775          0.0000          0.0000          0.0000
   7.8800         13.1396         13.1396         13.1396          0.0000          0.0000          0.0000
   7.9000         13.1017         13.1017         13.1017          0.0000          0.0000          0.0000
   7.9200         13.0687         13.0687         13.0687          0.0000          0.0000          0.0000
   7.9400         13.0449         13.0449         13.0449          0.0000          0.0000          0.0000
   7.9600         13.0342         13.0342         13.0342          0.0000          0.0000          0.0000
   7.9800         13.0398         13.0398         13.0398          0.0000          0.0000          0.0000
   8.0000         13.0644         13.0644         13.0644          0.0000          0.0000          0.0000
   8.0200         13.1099         13.1099         13.1099          0.0000          0.0000          0.0000
   8.0400         13.1772         13.1772         13.1772          0.0000          0.0000          0.0000
   8.0600         13.2659         13.2659         13.2659          0.0000          0.0000          0.0000
   8.0800         13.3736         13.3736         13.3736          0.0000          0.0000          0.0000
   8.1000         13.4958         13.4958         13.4958          0.0000          0.0000          0.0000
   8.1200         13.6260         13.6260         13.6260          0.0000          0.0000          0.0000
   8.1400         13.7566         13.7566         13.7566          0.0000          0.0000          0.0000
   8.1600         13.8794         13.8794         13.8794          0.0000          0.0000          0.0000
   8.1800         13.9869         13.9869         13.9869          0.0000          0.0000          0.0000
   8.2000         14.0736         14.0736         14.0736          0.0000          0.0000          0.0000
   8.2200         14.1358         14.1358         14.1358          0.0000          0.0000          0.0000
   8.2400         14.1727         14.1727         14.1727          0.0000          0.0000          0.0000
   8.2600         14.1852         14.1852         14.1852          0.0000          0.0000          0.0000
   8.2800         14.1757         14.1757         14.1757          0.0000          0.0000          0.0000
   8.3000         14.1474         14.1474         14.1474          0.0000          0.0000          0.0000
   8.3200         14.1031         14.1031         14.1031          0.0000          0.0000          0.0000
   8.3400         14.0455         14.0455         14.0455          0.0000          0.0000          0.0000
   8.3600         13.9766         13.9766         13.9766          0.0000          0.0000          0.0000
   8.3800         13.8986         13.8986         13.8986          0.0000          0.0000          0.0000
   8.4000         13.8142         13.8142         13.8142          0.0000          0.0000          0.0000
   8.4200         13.7271         13.7271         13.7271          0.0000          0.0000          0.0000
   8.4400         13.6421         13.6421         13.6421          0.0000          0.0000          0.0000
   8.4600         13.5653         13.5653         13.5653          0.0000          0.0000          0.0000
   8.4800         13.5028         13.5028         13.5028          0.0000          0.0000          0.0000
   8.5000         13.4605         13.4605         13.4605          0.0000          0.0000          0.0000
   8.5200         13.4428         13.4428         13.4428          0.0000          0.0000          0.0000
   8.5400         13.4520         13.4520         13.4520          0.0000          0.0000          0.0000
   8.5600         13.4878         13.4878         13.4878          0.0000          0.0000          0.0000
   8.5800         13.5481         13.5481         13.5481          0.0000          0.0000          0.0000
   8.6000         13.6287         13.6287         13.6287          0.0000          0.0000          0.0000
   8.6200         13.7245         13.7245         13.7245          0.0000          0.0000          0.0000
   8.6400         13.8301         13.8301         13.8301          0.0000          0.0000          0.0000
   8.6600         13.9401         13.9401         13.9401          0.0000          0.0000          0.0000
   8.6800         14.0496         14.0496         14.0496          0.0000          0.0000          0.0000
   8.7000         14.1543         14.1543         14.1543          0.0000          0.0000          0.0000
   8.7200         14.2505         14.2505         14.2505          0.0000          0.0000          0.0000
   8.7400         14.3353         14.3353         14.3353          0.0000          0.0000          0.0000
   8.7600         14.4069         14.4069         14.4069          0.0000          0.0000          0.0000
   8.7800         14.4641         14.4641         14.4641          0.0000          0.0000          0.0000
   8.8000         14.5068         14.5068         14.5068          0.0000          0.0000          0.0000
   8.8200         14.5354         14.5354         14.5354          0.0000          0.0000          0.0000
   8.8400         14.5509         14.5509         14.5509          0.0000          0.0000          0.0000
   8.8600         14.5545         14.5545         14.5545          0.0000          0.0000          0.0000
   8.8800         14.5475         14.5475         14.5475          0.0000          0.0000          0.0000
   8.9000         14.5313         14.5313         14.5313          0.0000          0.0000          0.0000
   8.9200         14.5074         14.5074         14.5074          0.0000          0.0000          0.0000
   8.9400         14.4774         14.4774         14.4774          0.0000          0.0000          0.0000
   8.9600         14.4430         14.4430         14.4430          0.0000          0.0000          0.0000
   8.9800         14.4060         14.4060         14.4060          0.0000          0.0000          0.0000
   9.0000         14.3679         14.3679         14.3679          0.0000          0.0000          0.0000
   9.0200         14.3295         14.3295         14.3295          0.0000          0.0000          0.0000
   9.0400         14.2914         14.2914         14.2914          0.0000          0.0000          0.0000
   9.0600         14.2536         14.2536         14.2536          0.0000          0.0000          0.0000
   9.0800         14.2160         14.2160         14.2160          0.0000          0.0000          0.0000
   9.1000         14.1785         14.1785         14.1785          0.0000          0.0000          0.0000
   9.1200         14.1413         14.1413         14.1413          0.0000          0.0000          0.0000
   9.1400         14.1046         14.1046         14.1046          0.0000          0.0000          0.0000
   9.1600         14.0687         14.0687         14.0687          0.0000          0.0000          0.0000
   9.1800         14.0336         14.0336         14.0336          0.0000          0.0000          0.0000
   9.2000         13.9991         13.9991         13.9991          0.0000          0.0000          0.0000
   9.2200         13.9641         13.9641         13.9641          0.0000          0.0000          0.0000
   9.2400         13.9279         13.9279         13.9279          0.0000          0.0000          0.0000
   9.2600         13.8896         13.8896         13.8896          0.0000          0.0000          0.0000
   9.2800         13.8494         13.8494         13.8494          0.0000          0.0000          0.0000
   9.3000         13.8084         13.8084         13.8084          0.0000          0.0000          0.0000
   9.3200         13.7693         13.7693         13.7693          0.0000          0.0000          0.0000
   9.3400         13.7357         13.7357         13.7357          0.0000          0.0000          0.0000
   9.3600         13.7123         13.7123         13.7123          0.0000          0.0000          0.0000
   9.3800         13.7029         13.7029         13.7029          0.0000          0.0000          0.0000
   9.4000         13.7107         13.7107         13.7107          0.0000          0.0000          0.0000
   9.4200         13.7363         13.7363         13.7363          0.0000          0.0000          0.0000
   9.4400         13.7780         13.7780         13.7780          0.0000          0.0000          0.0000
   9.4600         13.8317         13.8317         13.8317          0.0000          0.0000          0.0000
   9.4800         13.8913         13.8913         13.8913          0.0000          0.0000          0.0000
   9.5000         13.9499         13.9499         13.9499          0.0000          0.0000          0.0000
   9.5200         14.0005         14.0005         14.0005          0.0000          0.0000          0.0000
   9.5400         14.0374         14.0374         14.0374          0.0000          0.0000          0.0000
   9.5600         14.0561         14.0561         14.0561          0.0000          0.0000          0.0000
   9.5800         14.0545         14.0545         14.0545          0.0000          0.0000          0.0000
   9.6000         14.0323         14.0323         14.0323          0.0000          0.0000          0.0000
   9.6200         13.9915         13.9915         13.9915          0.0000          0.0000          0.0000
   9.6400         13.9351         13.9351         13.9351          0.0000          0.0000          0.0000
   9.6600         13.8674         13.8674         13.8674          0.0000          0.0000          0.0000
   9.6800         13.7931         13.7931         13.7931          0.0000          0.0000          0.0000
   9.7000         13.7165         13.7165         13.7165          0.0000          0.0000          0.0000
   9.7200         13.6414         13.6414         13.6414          0.0000          0.0000          0.0000
   9.7400         13.5703         13.5703         13.5703          0.0000          0.0000          0.0000
   9.7600         13.5045         13.5045         13.5045          0.0000          0.0000          0.0000
   9.7800         13.4439         13.4439         13.4439          0.0000          0.0000          0.0000
   9.8000         13.3876         13.3876         13.3876          0.0000          0.0000          0.0000
   9.8200         13.3341         13.3341         13.3341          0.0000          0.0000          0.0000
   9.8400         13.2822         13.2822         13.2822          0.0000          0.0000          0.0000
   9.8600         13.2312         13.2312         13.2312          0.0000          0.0000          0.0000
   9.8800         13.1816         13.1816         13.1816          0.0000          0.0000          0.0000
   9.9000         13.1350         13.1350         13.1350          0.0000          0.0000          0.0000
   9.9200         13.0935         13.0935         13.0935          0.0000          0.0000          0.0000
   9.9400         13.0594         13.0594         13.0594          0.0000          0.0000          0.0000
   9.9600         13.0346         13.0346         13.0346          0.0000          0.0000          0.0000
   9.9800         13.0191         13.0191         13.0191          0.0000          0.0000          0.0000
  10.0000         13.0117         13.0117         13.0117          0.0000          0.0000          0.0000
  10.0200         13.0095         13.0095         13.0095          0.0000          0.0000          0.0000
  10.0400         13.0085         13.0085         13.0085          0.0000          0.0000          0.0000
  10.0600         13.0047         13.0047         13.0047          0.0000          0.0000          0.0000
  10.0800         12.9945         12.9945         12.9945          0.0000          0.0000          0.0000
  10.1000         12.9751         12.9751         12.9751          0.0000          0.0000          0.0000
  10.1200         12.9450         12.9450         12.9450          0.0000          0.0000          0.0000
  10.1400         12.9038         12.9038         12.9038          0.0000          0.0000          0.0000
  10.1600         12.8517         12.8517         12.8517          0.0000          0.0000          0.0000
  10.1800         12.7899         12.7899         12.7899          0.0000          0.0000          0.0000
  10.2000         12.7196         12.7196         12.7196          0.0000          0.0000          0.0000
  10.2200         12.6426         12.6426         12.6426          0.0000          0.0000          0.0000
  10.2400         12.5612         12.5612         12.5612          0.0000          0.0000          0.0000
  10.2600         12.4782         12.4782         12.4782          0.0000          0.0000          0.0000
  10.2800         12.3971         12.3971         12.3971          0.0000          0.0000          0.0000
  10.3000         12.3219         12.3219         12.3219          0.0000          0.0000          0.0000
  10.3200         12.2568         12.2568         12.2568          0.0000          0.0000          0.0000
  10.3400         12.2061         12.2061         12.2061          0.0000          0.0000          0.0000
  10.3600         12.1729         12.1729         12.1729          0.0000          0.0000          0.0000
  10.3800         12.1591         12.1591         12.1591          0.0000          0.0000          0.0000
  10.4000         12.1648         12.1648         12.1648          0.0000          0.0000          0.0000
  10.4200         12.1880         12.1880         12.1880          0.0000          0.0000          0.0000
  10.4400         12.2250         12.2250         12.2250          0.0000          0.0000          0.0000
  10.4600         12.2706         12.2706         12.2706          0.0000          0.0000          0.0000
  10.4800         12.3192         12.3192         12.3192          0.0000          0.0000          0.0000
  10.5000         12.3654         12.3654         12.3654          0.0000          0.0000          0.0000
  10.5200         12.4048         12.4048         12.4048          0.0000          0.0000          0.0000
  10.5400         12.4346         12.4346         12.4346          0.0000          0.0000          0.0000
  10.5600         12.4538         12.4538         12.4538          0.0000          0.0000          0.0000
  10.5800         12.4631         12.4631         12.4631          0.0000          0.0000          0.0000
  10.6000         12.4643         12.4643         12.4643          0.0000          0.0000          0.0000
  10.6200         12.4601         12.4601         12.4601          0.0000          0.0000          0.0000
  10.6400         12.4526         12.4526         12.4526          0.0000          0.0000          0.0000
  10.6600         12.4435         12.4435         12.4435          0.0000          0.0000          0.0000
  10.6800         12.4333         12.4333         12.4333          0.0000          0.0000          0.0000
  10.7000         12.4217         12.4217         12.4217          0.0000          0.0000          0.0000
  10.7200         12.4083         12.4083         12.4083          0.0000          0.0000          0.0000
  10.7400         12.3925         12.3925         12.3925          0.0000          0.0000          0.0000
  10.7600         12.3747         12.3747         12.3747          0.0000          0.0000          0.0000
  10.7800         12.3558         12.3558         12.3558          0.0000          0.0000          0.0000
  10.8000         12.3375         12.3375         12.3375          0.0000          0.0000          0.0000
  10.8200         12.3216         12.3216         12.3216          0.0000          0.0000          0.0000
  10.8400         12.3094         12.3094         12.3094          0.0000          0.0000          0.0000
  10.8600         12.3016         12.3016         12.3016          0.0000          0.0000          0.0000
  10.8800         12.2978         12.2978         12.2978          0.0000          0.0000          0.0000
  10.9000         12.2968         12.2968         12.2968          0.0000          0.0000          0.0000
  10.9200         12.2971         12.2971         12.2971          0.0000          0.0000          0.0000
  10.9400         12.2968         12.2968         12.2968          0.0000          0.0000          0.0000
  10.9600         12.2946         12.2946         12.2946          0.0000          0.0000          0.0000
  10.9800         12.2894         12.2894         12.2894          0.0000          0.0000          0.0000
  11.0000         12.2807         12.2807         12.2807          0.0000          0.0000          0.0000
  11.0200         12.2683         12.2683         12.2683          0.0000          0.0000          0.0000
  11.0400         12.2520         12.2520         12.2520          0.0000          0.0000          0.0000
  11.0600         12.2319         12.2319         12.2319          0.0000          0.0000          0.0000
  11.0800         12.2085         12.2085         12.2085          0.0000          0.0000          0.0000
  11.1000         12.1823         12.1823         12.1823          0.0000          0.0000          0.0000
  11.1200         12.1547         12.1547         12.1547          0.0000          0.0000          0.0000
  11.1400         12.1275         12.1275         12.1275          0.0000          0.0000          0.0000
  11.1600         12.1030         12.1030         12.1030          0.0000          0.0000          0.0000
  11.1800         12.0834         12.0834         12.0834          0.0000          0.0000          0.0000
  11.2000         12.0707         12.0707         12.0707          0.0000          0.0000          0.0000
  11.2200         12.0657         12.0657         12.0657          0.0000          0.0000          0.0000
  11.2400         12.0676         12.0676         12.0676          0.0000          0.0000          0.0000
  11.2600         12.0746         12.0746         12.0746          0.0000          0.0000          0.0000
  11.2800         12.0836         12.0836         12.0836          0.0000          0.0000          0.0000
  11.3000         12.0909         12.0909         12.0909          0.0000          0.0000          0.0000
  11.3200         12.0933         12.0933         12.0933          0.0000          0.0000          0.0000
  11.3400         12.0884         12.0884         12.0884          0.0000          0.0000          0.0000
  11.3600         12.0752         12.0752         12.0752          0.0000          0.0000          0.0000
  11.3800         12.0546         12.0546         12.0546          0.0000          0.0000          0.0000
  11.4000         12.0289         12.0289         12.0289          0.0000          0.0000          0.0000
  11.4200         12.0016         12.0016         12.0016          0.0000          0.0000          0.0000
  11.4400         11.9766         11.9766         11.9766          0.0000          0.0000          0.0000
  11.4600         11.9576         11.9576         11.9576          0.0000          0.0000          0.0000
  11.4800         11.9471         11.9471         11.9471          0.0000          0.0000          0.0000
  11.5000         11.9469         11.9469         11.9469          0.0000          0.0000          0.0000
  11.5200         11.9574         11.9574         11.9574          0.0000          0.0000          0.0000
  11.5400         11.9782         11.9782         11.9782          0.0000          0.0000          0.0000
  11.5600         12.0086         12.0086         12.0086          0.0000          0.0000          0.0000
  11.5800         12.0477         12.0477         12.0477          0.0000          0.0000          0.0000
  11.6000         12.0948         12.0948         12.0948          0.0000          0.0000          0.0000
  11.6200         12.1489         12.1489         12.1489          0.0000          0.0000          0.0000
  11.6400         12.2095         12.2095         12.2095          0.0000          0.0000          0.0000
  11.6600         12.2754         12.2754         12.2754          0.0000          0.0000          0.0000
  11.6800         12.3458         12.3458         12.3458          0.0000          0.0000          0.0000
  11.7000         12.4194         12.4194         12.4194          0.0000          0.0000          0.0000
  11.7200         12.4948         12.4948         12.4948          0.0000          0.0000          0.0000
  11.7400         12.5706         12.5706         12.5706          0.0000          0.0000          0.0000
  11.7600         12.6452         12.6452         12.6452          0.0000          0.0000          0.0000
  11.7800         12.7168         12.7168         12.7168          0.0000          0.0000          0.0000
  11.8000         12.7837         12.7837         12.7837          0.0000          0.0000          0.0000
  11.8200         12.8447         12.8447         12.8447          0.0000          0.0000          0.0000
  11.8400         12.8986         12.8986         12.8986          0.0000          0.0000          0.0000
  11.8600         12.9454         12.9454         12.9454          0.0000          0.0000          0.0000
  11.8800         12.9856         12.9856         12.9856          0.0000          0.0000          0.0000
  11.9000         13.0209         13.0209         13.0209          0.0000          0.0000          0.0000
  11.9200         13.0532         13.0532         13.0532          0.0000          0.0000          0.0000
  11.9400         13.0846         13.0846         13.0846          0.0000          0.0000          0.0000
  11.9600         13.1170         13.1170         13.1170          0.0000          0.0000          0.0000
  11.9800         13.1516         13.1516         13.1516          0.0000          0.0000          0.0000
  12.0000         13.1888         13.1888         13.1888          0.0000          0.0000          0.0000
  12.0200         13.2284         13.2284         13.2284          0.0000          0.0000          0.0000
  12.0400         13.2697         13.2697         13.2697          0.0000          0.0000          0.0000
  12.0600         13.3120         13.3120         13.3120          0.0000          0.0000          0.0000
  12.0800         13.3549         13.3549         13.3549          0.0000          0.0000          0.0000
  12.1000         13.3984         13.3984         13.3984          0.0000          0.0000          0.0000
  12.1200         13.4435         13.4435         13.4435          0.0000          0.0000          0.0000
  12.1400         13.4918         13.4918         13.4918          0.0000          0.0000          0.0000
  12.1600         13.5453         13.5453         13.5453          0.0000          0.0000          0.0000
  12.1800         13.6057         13.6057         13.6057          0.0000          0.0000          0.0000
  12.2000         13.6743         13.6743         13.6743          0.0000          0.0000          0.0000
  12.2200         13.7508         13.7508         13.7508          0.0000          0.0000          0.0000
  12.2400         13.8333         13.8333         13.8333          0.0000          0.0000          0.0000
  12.2600         13.9185         13.9185         13.9185          0.0000          0.0000          0.0000
  12.2800         14.0022         14.0022         14.0022          0.0000          0.0000          0.0000
  12.3000         14.0798         14.0798         14.0798          0.0000          0.0000          0.0000
  12.3200         14.1474         14.1474         14.1474          0.0000          0.0000          0.0000
  12.3400         14.2024         14.2024         14.2024          0.0000          0.0000          0.0000
  12.3600         14.2436         14.2436         14.2436          0.0000          0.0000          0.0000
  12.3800         14.2712         14.2712         14.2712          0.0000          0.0000          0.0000
  12.4000         14.2865         14.2865         14.2865          0.0000          0.0000          0.0000
  12.4200         14.2914         14.2914         14.2914          0.0000          0.0000          0.0000
  12.4400         14.2885         14.2885         14.2885          0.0000          0.0000          0.0000
  12.4600         14.2802         14.2802         14.2802          0.0000          0.0000          0.0000
  12.4800         14.2689         14.2689         14.2689          0.0000          0.0000          0.0000
  12.5000         14.2570         14.2570         14.2570          0.0000          0.0000          0.0000
  12.5200         14.2464         14.2464         14.2464          0.0000          0.0000          0.0000
  12.5400         14.2393         14.2393         14.2393          0.0000          0.0000          0.0000
  12.5600         14.2371         14.2371         14.2371          0.0000          0.0000          0.0000
  12.5800         14.2412         14.2412         14.2412          0.0000          0.0000          0.0000
  12.6000         14.2521         14.2521         14.2521          0.0000          0.0000          0.0000
  12.6200         14.2700         14.2700         14.2700          0.0000          0.0000          0.0000
  12.6400         14.2942         14.2942         14.2942          0.0000          0.0000          0.0000
  12.6600         14.3241         14.3241         14.3241          0.0000          0.0000          0.0000
  12.6800         14.3585         14.3585         14.3585          0.0000          0.0000          0.0000
  12.7000         14.3969         14.3969         14.3969          0.0000          0.0000          0.0000
  12.7200         14.4391         14.4391         14.4391          0.0000          0.0000          0.0000
  12.7400         14.4852         14.4852         14.4852          0.0000          0.0000          0.0000
  12.7600         14.5357         14.5357         14.5357          0.0000          0.0000          0.0000
  12.7800         14.5904         14.5904         14.5904          0.0000          0.0000          0.0000
  12.8000         14.6485         14.6485         14.6485          0.0000          0.0000          0.0000
  12.8200         14.7083         14.7083         14.7083          0.0000          0.0000          0.0000
  12.8400         14.7673         14.7673         14.7673          0.0000          0.0000          0.0000
  12.8600         14.8228         14.8228         14.8228          0.0000          0.0000          0.0000
  12.8800         14.8726         14.8726         14.8726          0.0000          0.0000          0.0000
  12.9000         14.9159         14.9159         14.9159          0.0000          0.0000          0.0000
  12.9200         14.9532         14.9532         14.9532          0.0000          0.0000          0.0000
  12.9400         14.9867         14.9867         14.9867          0.0000          0.0000          0.0000
  12.9600         15.0192         15.0192         15.0192          0.0000          0.0000          0.0000
  12.9800         15.0539         15.0539         15.0539          0.0000          0.0000          0.0000
  13.0000         15.0934         15.0934         15.0934          0.0000          0.0000          0.0000
  13.0200         15.1389         15.1389         15.1389          0.0000          0.0000          0.0000
  13.0400         15.1902         15.1902         15.1902          0.0000          0.0000          0.0000
  13.0600         15.2457         15.2457         15.2457          0.0000          0.0000          0.0000
  13.0800         15.3024         15.3024         15.3024          0.0000          0.0000          0.0000
  13.1000         15.3568         15.3568         15.3568          0.0000          0.0000          0.0000
  13.1200         15.4054         15.4054         15.4054          0.0000          0.0000          0.0000
  13.1400         15.4447         15.4447         15.4447          0.0000          0.0000          0.0000
  13.1600         15.4726         15.4726         15.4726          0.0000          0.0000          0.0000
  13.1800         15.4878         15.4878         15.4878          0.0000          0.0000          0.0000
  13.2000         15.4906         15.4906         15.4906          0.0000          0.0000          0.0000
  13.2200         15.4819         15.4819         15.4819          0.0000          0.0000          0.0000
  13.2400         15.4638         15.4638         15.4638          0.0000          0.0000          0.0000
  13.2600         15.4389         15.4389         15.4389          0.0000          0.0000          0.0000
  13.2800         15.4099         15.4099         15.4099          0.0000          0.0000          0.0000
  13.3000         15.3798         15.3798         15.3798          0.0000          0.0000          0.0000
  13.3200         15.3515         15.3515         15.3515          0.0000          0.0000          0.0000
  13.3400         15.3278         15.3278         15.3278          0.0000          0.0000          0.0000
  13.3600         15.3114         15.3114         15.3114          0.0000          0.0000          0.0000
  13.3800         15.3040         15.3040         15.3040          0.0000          0.0000          0.0000
  13.4000         15.3066         15.3066         15.3066          0.0000          0.0000          0.0000
  13.4200         15.3189         15.3189         15.3189          0.0000          0.0000          0.0000
  13.4400         15.3392         15.3392         15.3392          0.0000          0.0000          0.0000
  13.4600         15.3647         15.3647         15.3647          0.0000          0.0000          0.0000
  13.4800         15.3920         15.3920         15.3920          0.0000          0.0000          0.0000
  13.5000         15.4177         15.4177         15.4177          0.0000          0.0000          0.0000
  13.5200         15.4387         15.4387         15.4387          0.0000          0.0000          0.0000
  13.5400         15.4530         15.4530         15.4530          0.0000          0.0000          0.0000
  13.5600         15.4596         15.4596         15.4596          0.0000          0.0000          0.0000
  13.5800         15.4584         15.4584         15.4584          0.0000          0.0000          0.0000
  13.6000         15.4503         15.4503         15.4503          0.0000          0.0000          0.0000
  13.6200         15.4363         15.4363         15.4363          0.0000          0.0000          0.0000
  13.6400         15.4179         15.4179         15.4179          0.0000          0.0000          0.0000
  13.6600         15.3965         15.3965         15.3965          0.0000          0.0000          0.0000
  13.6800         15.3734         15.3734         15.3734          0.0000          0.0000          0.0000
  13.7000         15.3502         15.3502         15.3502          0.0000          0.0000          0.0000
  13.7200         15.3286         15.3286         15.3286          0.0000          0.0000          0.0000
  13.7400         15.3103         15.3103         15.3103          0.0000          0.0000          0.0000
  13.7600         15.2974         15.2974         15.2974          0.0000          0.0000          0.0000
  13.7800         15.2920         15.2920         15.2920          0.0000          0.0000          0.0000
  13.8000         15.2956         15.2956         15.2956          0.0000          0.0000          0.0000
  13.8200         15.3091         15.3091         15.3091          0.0000          0.0000          0.0000
  13.8400         15.3329         15.3329         15.3329          0.0000          0.0000          0.0000
  13.8600         15.3662         15.3662         15.3662          0.0000          0.0000          0.0000
  13.8800         15.4079         15.4079         15.4079          0.0000          0.0000          0.0000
  13.9000         15.4563         15.4563         15.4563          0.0000          0.0000          0.0000
  13.9200         15.5096         15.5096         15.5096          0.0000          0.0000          0.0000
  13.9400         15.5664         15.5664         15.5664          0.0000          0.0000          0.0000
  13.9600         15.6247         15.6247         15.6247          0.0000          0.0000          0.0000
  13.9800         15.6829         15.6829         15.6829          0.0000          0.0000          0.0000
  14.0000         15.7387         15.7387         15.7387          0.0000          0.0000          0.0000
  14.0200         15.7893         15.7893         15.7893          0.0000          0.0000          0.0000
  14.0400         15.8317         15.8317         15.8317          0.0000          0.0000          0.0000
  14.0600         15.8631         15.8631         15.8631          0.0000          0.0000          0.0000
  14.0800         15.8811         15.8811         15.8811          0.0000          0.0000          0.0000
  14.1000         15.8847         15.8847         15.8847          0.0000          0.0000          0.0000
  14.1200         15.8747         15.8747         15.8747          0.0000          0.0000          0.0000
  14.1400         15.8531         15.8531         15.8531          0.0000          0.0000          0.0000
  14.1600         15.8232         15.8232         15.8232          0.0000          0.0000          0.0000
  14.1800         15.7886         15.7886         15.7886          0.0000          0.0000          0.0000
  14.2000         15.7523         15.7523         15.7523          0.0000          0.0000          0.0000
  14.2200         15.7156         15.7156         15.7156          0.0000          0.0000          0.0000
  14.2400         15.6786         15.6786         15.6786          0.0000          0.0000          0.0000
  14.2600         15.6394         15.6394         15.6394          0.0000          0.0000          0.0000
  14.2800         15.5956         15.5956         15.5956          0.0000          0.0000          0.0000
  14.3000         15.5448         15.5448         15.5448          0.0000          0.0000          0.0000
  14.3200         15.4859         15.4859         15.4859          0.0000          0.0000          0.0000
  14.3400         15.4198         15.4198         15.4198          0.0000          0.0000          0.0000
  14.3600         15.3496         15.3496         15.3496          0.0000          0.0000          0.0000
  14.3800         15.2804         15.2804         15.2804          0.0000          0.0000          0.0000
  14.4000         15.2182         15.2182         15.2182          0.0000          0.0000          0.0000
  14.4200         15.1684         15.1684         15.1684          0.0000          0.0000          0.0000
  14.4400         15.1347         15.1347         15.1347          0.0000          0.0000          0.0000
  14.4600         15.1182         15.1182         15.1182          0.0000          0.0000          0.0000
  14.4800         15.1176         15.1176         15.1176          0.0000          0.0000          0.0000
  14.5000         15.1292         15.1292         15.1292          0.0000          0.0000          0.0000
  14.5200         15.1485         15.1485         15.1485          0.0000          0.0000          0.0000
  14.5400         15.1709         15.1709         15.1709          0.0000          0.0000          0.0000
  14.5600         15.1926         15.1926         15.1926          0.0000          0.0000          0.0000
  14.5800         15.2112         15.2112         15.2112          0.0000          0.0000          0.0000
  14.6000         15.2258         15.2258         15.2258          0.0000          0.0000          0.0000
  14.6200         15.2370         15.2370         15.2370          0.0000          0.0000          0.0000
  14.6400         15.2464         15.2464         15.2464          0.0000          0.0000          0.0000
  14.6600         15.2563         15.2563         15.2563          0.0000          0.0000          0.0000
  14.6800         15.2692         15.2692         15.2692          0.0000          0.0000          0.0000
  14.7000         15.2874         15.2874         15.2874          0.0000          0.0000          0.0000
  14.7200         15.3131         15.3131         15.3131          0.0000          0.0000          0.0000
  14.7400         15.3480         15.3480         15.3480          0.0000          0.0000          0.0000
  14.7600         15.3937         15.3937         15.3937          0.0000          0.0000          0.0000
  14.7800         15.4511         15.4511         15.4511          0.0000          0.0000          0.0000
  14.8000         15.5208         15.5208         15.5208          0.0000          0.0000          0.0000
  14.8200         15.6021         15.6021         15.6021          0.0000          0.0000          0.0000
  14.8400         15.6927         15.6927         15.6927          0.0000          0.0000          0.0000
  14.8600         15.7890         15.7890         15.7890          0.0000          0.0000          0.0000
  14.8800         15.8859         15.8859         15.8859          0.0000          0.0000          0.0000
  14.9000         15.9776         15.9776         15.9776          0.0000          0.0000          0.0000
  14.9200         16.0585         16.0585         16.0585          0.0000          0.0000          0.0000
  14.9400         16.1242         16.1242         16.1242          0.0000          0.0000          0.0000
  14.9600         16.1724         16.1724         16.1724          0.0000          0.0000          0.0000
  14.9800         16.2026         16.2026         16.2026          0.0000          0.0000          0.0000
  15.0000         16.2163         16.2163         16.2163          0.0000          0.0000          0.0000
  15.0200         16.2163         16.2163         16.2163          0.0000          0.0000          0.0000
  15.0400         16.2056         16.2056         16.2056          0.0000          0.0000          0.0000
  15.0600         16.1865         16.1865         16.1865          0.0000          0.0000          0.0000
  15.0800         16.1606         16.1606         16.1606          0.0000          0.0000          0.0000
  15.1000         16.1283         16.1283         16.1283          0.0000          0.0000          0.0000
  15.1200         16.0890         16.0890         16.0890          0.0000          0.0000          0.0000
  15.1400         16.0419         16.0419         16.0419          0.0000          0.0000          0.0000
  15.1600         15.9864         15.9864         15.9864          0.0000          0.0000          0.0000
  15.1800         15.9227         15.9227         15.9227          0.0000          0.0000          0.0000
  15.2000         15.8514         15.8514         15.8514          0.0000          0.0000          0.0000
  15.2200         15.7741         15.7741         15.7741          0.0000          0.0000          0.0000
  15.2400         15.6928         15.6928         15.6928          0.0000          0.0000          0.0000
  15.2600         15.6102         15.6102         15.6102          0.0000          0.0000          0.0000
  15.2800         15.5286         15.5286         15.5286          0.0000          0.0000          0.0000
  15.3000         15.4508         15.4508         15.4508          0.0000          0.0000          0.0000
  15.3200         15.3787         15.3787         15.3787          0.0000          0.0000          0.0000
  15.3400         15.3142         15.3142         15.3142          0.0000          0.0000          0.0000
  15.3600         15.2580         15.2580         15.2580          0.0000          0.0000          0.0000
  15.3800         15.2102         15.2102         15.2102          0.0000          0.0000          0.0000
  15.4000         15.1695         15.1695         15.1695          0.0000          0.0000          0.0000
  15.4200         15.1344         15.1344         15.1344          0.0000          0.0000          0.0000
  15.4400         15.1029         15.1029         15.1029          0.0000          0.0000          0.0000
  15.4600         15.0730         15.0730         15.0730          0.0000          0.0000          0.0000
  15.4800         15.0435         15.0435         15.0435          0.0000          0.0000          0.0000
  15.5000         15.0138         15.0138         15.0138          0.0000          0.0000          0.0000
  15.5200         14.9846         14.9846         14.9846          0.0000          0.0000          0.0000
  15.5400         14.9570         14.9570         14.9570          0.0000          0.0000          0.0000
  15.5600         14.9330         14.9330         14.9330          0.0000          0.0000          0.0000
  15.5800         14.9144         14.9144         14.9144          0.0000          0.0000          0.0000
  15.6000         14.9030         14.9030         14.9030          0.0000          0.0000          0.0000
  15.6200         14.8999         14.8999         14.8999          0.0000          0.0000          0.0000
  15.6400         14.9053         14.9053         14.9053          0.0000          0.0000          0.0000
  15.6600         14.9186         14.9186         14.9186          0.0000          0.0000          0.0000
  15.6800         14.9385         14.9385         14.9385          0.0000          0.0000          0.0000
  15.7000         14.9634         14.9634         14.9634          0.0000          0.0000          0.0000
  15.7200         14.9924         14.9924         14.9924          0.0000          0.0000          0.0000
  15.7400         15.0258         15.0258         15.0258          0.0000          0.0000          0.0000
  15.7600         15.0657         15.0657         15.0657          0.0000          0.0000          0.0000
  15.7800         15.1158         15.1158         15.1158          0.0000          0.0000          0.0000
  15.8000         15.1808         15.1808         15.1808          0.0000          0.0000          0.0000
  15.8200         15.2650         15.2650         15.2650          0.0000          0.0000          0.0000
  15.8400         15.3714         15.3714         15.3714          0.0000          0.0000          0.0000
  15.8600         15.5004         15.5004         15.5004          0.0000          0.0000          0.0000
  15.8800         15.6492         15.6492         15.6492          0.0000          0.0000          0.0000
  15.9000         15.8123         15.8123         15.8123          0.0000          0.0000          0.0000
  15.9200         15.9818         15.9818         15.9818          0.0000          0.0000          0.0000
  15.9400         16.1490         16.1490         16.1490          0.0000          0.0000          0.0000
  15.9600         16.3049         16.3049         16.3049          0.0000          0.0000          0.0000
  15.9800         16.4412         16.4412         16.4412          0.0000          0.0000          0.0000
  16.0000         16.5509         16.5509         16.5509          0.0000          0.0000          0.0000
  16.0200         16.6289         16.6289         16.6289          0.0000          0.0000          0.0000
  16.0400         16.6716         16.6716         16.6716          0.0000          0.0000          0.0000
  16.0600         16.6776         16.6776         16.6776          0.0000          0.0000          0.0000
  16.0800         16.6471         16.6471         16.6471          0.0000          0.0000          0.0000
  16.1000         16.5824         16.5824         16.5824          0.0000          0.0000          0.0000
  16.1200         16.4869         16.4869         16.4869          0.0000          0.0000          0.0000
  16.1400         16.3654         16.3654         16.3654          0.0000          0.0000          0.0000
  16.1600         16.2236         16.2236         16.2236          0.0000          0.0000          0.0000
  16.1800         16.0676         16.0676         16.0676          0.0000          0.0000          0.0000
  16.2000         15.9041         15.9041         15.9041          0.0000          0.0000          0.0000
  16.2200         15.7394         15.7394         15.7394          0.0000          0.0000          0.0000
  16.2400         15.5799         15.5799         15.5799          0.0000          0.0000          0.0000
  16.2600         15.4318         15.4318         15.4318          0.0000          0.0000          0.0000
  16.2800         15.3003         15.3003         15.3003          0.0000          0.0000          0.0000
  16.3000         15.1900         15.1900         15.1900          0.0000          0.0000          0.0000
  16.3200         15.1043         15.1043         15.1043          0.0000          0.0000          0.0000
  16.3400         15.0448         15.0448         15.0448          0.0000          0.0000          0.0000
  16.3600         15.0120         15.0120         15.0120          0.0000          0.0000          0.0000
  16.3800         15.0047         15.0047         15.0047          0.0000          0.0000          0.0000
  16.4000         15.0207         15.0207         15.0207          0.0000          0.0000          0.0000
  16.4200         15.0569         15.0569         15.0569          0.0000          0.0000          0.0000
  16.4400         15.1098         15.1098         15.1098          0.0000          0.0000          0.0000
  16.4600         15.1755         15.1755         15.1755          0.0000          0.0000          0.0000
  16.4800         15.2504         15.2504         15.2504          0.0000          0.0000          0.0000
  16.5000         15.3308         15.3308         15.3308          0.0000          0.0000          0.0000
  16.5200         15.4139         15.4139         15.4139          0.0000          0.0000          0.0000
  16.5400         15.4974         15.4974         15.4974          0.0000          0.0000          0.0000
  16.5600         15.5797         15.5797         15.5797          0.0000          0.0000          0.0000
  16.5800         15.6600         15.6600         15.6600          0.0000          0.0000          0.0000
  16.6000         15.7374         15.7374         15.7374          0.0000          0.0000          0.0000
  16.6200         15.8110         15.8110         15.8110          0.0000          0.0000          0.0000
  16.6400         15.8793         15.8793         15.8793          0.0000          0.0000          0.0000
  16.6600         15.9400         15.9400         15.9400          0.0000          0.0000          0.0000
  16.6800         15.9904         15.9904         15.9904          0.0000          0.0000          0.0000
  16.7000         16.0278         16.0278         16.0278          0.0000          0.0000          0.0000
  16.7200         16.0502         16.0502         16.0502          0.0000          0.0000          0.0000
  16.7400         16.0563         16.0563         16.0563          0.0000          0.0000          0.0000
  16.7600         16.0465         16.0465         16.0465          0.0000          0.0000          0.0000
  16.7800         16.0229         16.0229         16.0229          0.0000          0.0000          0.0000
  16.8000         15.9893         15.9893         15.9893          0.0000          0.0000          0.0000
  16.8200         15.9507         15.9507         15.9507          0.0000          0.0000          0.0000
  16.8400         15.9132         15.9132         15.9132          0.0000          0.0000          0.0000
  16.8600         15.8829         15.8829         15.8829          0.0000          0.0000          0.0000
  16.8800         15.8653         15.8653         15.8653          0.0000          0.0000          0.0000
  16.9000         15.8646         15.8646         15.8646          0.0000          0.0000          0.0000
  16.9200         15.8827         15.8827         15.8827          0.0000          0.0000          0.0000
  16.9400         15.9193         15.9193         15.9193          0.0000          0.0000          0.0000
  16.9600         15.9717         15.9717         15.9717          0.0000          0.0000          0.0000
  16.9800         16.0353         16.0353         16.0353          0.0000          0.0000          0.0000
  17.0000         16.1046         16.1046         16.1046          0.0000          0.0000          0.0000
  17.0200         16.1740         16.1740         16.1740          0.0000          0.0000          0.0000
  17.0400         16.2388         16.2388         16.2388          0.0000          0.0000          0.0000
  17.0600         16.2957         16.2957         16.2957          0.0000          0.0000          0.0000
  17.0800         16.3434         16.3434         16.3434          0.0000          0.0000          0.0000
  17.1000         16.3825         16.3825         16.3825          0.0000          0.0000          0.0000
  17.1200         16.4150         16.4150         16.4150          0.0000          0.0000          0.0000
  17.1400         16.4435         16.4435         16.4435          0.0000          0.0000          0.0000
  17.1600         16.4704         16.4704         16.4704          0.0000          0.0000          0.0000
  17.1800         16.4974         16.4974         16.4974          0.0000          0.0000          0.0000
  17.2000         16.5243         16.5243         16.5243          0.0000          0.0000          0.0000
  17.2200         16.5496         16.5496         16.5496          0.0000          0.0000          0.0000
  17.2400         16.5698         16.5698         16.5698          0.0000          0.0000          0.0000
  17.2600         16.5806         16.5806         16.5806          0.0000          0.0000          0.0000
  17.2800         16.5772         16.5772         16.5772          0.0000          0.0000          0.0000
  17.3000         16.5553         16.5553         16.5553          0.0000          0.0000          0.0000
  17.3200         16.5117         16.5117         16.5117          0.0000          0.0000          0.0000
  17.3400         16.4447         16.4447         16.4447          0.0000          0.0000          0.0000
  17.3600         16.3549         16.3549         16.3549          0.0000          0.0000          0.0000
  17.3800         16.2450         16.2450         16.2450          0.0000          0.0000          0.0000
  17.4000         16.1196         16.1196         16.1196          0.0000          0.0000          0.0000
  17.4200         15.9852         15.9852         15.9852          0.0000          0.0000          0.0000
  17.4400         15.8492         15.8492         15.8492          0.0000          0.0000          0.0000
  17.4600         15.7192         15.7192         15.7192          0.0000          0.0000          0.0000
  17.4800         15.6022         15.6022         15.6022          0.0000          0.0000          0.0000
  17.5000         15.5035         15.5035         15.5035          0.0000          0.0000          0.0000
  17.5200         15.4260         15.4260         15.4260          0.0000          0.0000          0.0000
  17.5400         15.3705         15.3705         15.3705          0.0000          0.0000          0.0000
  17.5600         15.3353         15.3353         15.3353          0.0000          0.0000          0.0000
  17.5800         15.3171         15.3171         15.3171          0.0000          0.0000          0.0000
  17.6000         15.3120         15.3120         15.3120          0.0000          0.0000          0.0000
  17.6200         15.3162         15.3162         15.3162          0.0000          0.0000          0.0000
  17.6400         15.3269         15.3269         15.3269          0.0000          0.0000          0.0000
  17.6600         15.3430         15.3430         15.3430          0.0000          0.0000          0.0000
  17.6800         15.3646         15.3646         15.3646          0.0000          0.0000          0.0000
  17.7000         15.3932         15.3932         15.3932          0.0000          0.0000          0.0000
  17.7200         15.4310         15.4310         15.4310          0.0000          0.0000          0.0000
  17.7400         15.4800         15.4800         15.4800          0.0000          0.0000          0.0000
  17.7600         15.5414         15.5414         15.5414          0.0000          0.0000          0.0000
  17.7800         15.6156         15.6156         15.6156          0.0000          0.0000          0.0000
  17.8000         15.7015         15.7015         15.7015          0.0000          0.0000          0.0000
  17.8200         15.7967         15.7967         15.7967          0.0000          0.0000          0.0000
  17.8400         15.8982         15.8982         15.8982          0.0000          0.0000          0.0000
  17.8600         16.0022         16.0022         16.0022          0.0000          0.0000          0.0000
  17.8800         16.1046         16.1046         16.1046          0.0000          0.0000          0.0000
  17.9000         16.2010         16.2010         16.2010          0.0000          0.0000          0.0000
  17.9200         16.2865         16.2865         16.2865          0.0000          0.0000          0.0000
  17.9400         16.3563         16.3563         16.3563          0.0000          0.0000          0.0000
  17.9600         16.4056         16.4056         16.4056          0.0000          0.0000          0.0000
  17.9800         16.4301         16.4301         16.4301          0.0000          0.0000          0.0000
  18.0000         16.4265         16.4265         16.4265          0.0000          0.0000          0.0000
  18.0200         16.3932         16.3932         16.3932          0.0000          0.0000          0.0000
  18.0400         16.3305         16.3305         16.3305          0.0000          0.0000          0.0000
  18.0600         16.2414         16.2414         16.2414          0.0000          0.0000          0.0000
  18.0800         16.1309         16.1309         16.1309          0.0000          0.0000          0.0000
  18.1000         16.0063         16.0063         16.0063          0.0000          0.0000          0.0000
  18.1200         15.8761         15.8761         15.8761          0.0000          0.0000          0.0000
  18.1400         15.7493         15.7493         15.7493          0.0000          0.0000          0.0000
  18.1600         15.6337         15.6337         15.6337          0.0000          0.0000          0.0000
  18.1800         15.5352         15.5352         15.5352          0.0000          0.0000          0.0000
  18.2000         15.4571         15.4571         15.4571          0.0000          0.0000          0.0000
  18.2200         15.3995         15.3995         15.3995          0.0000          0.0000          0.0000
  18.2400         15.3600         15.3600         15.3600          0.0000          0.0000          0.0000
  18.2600         15.3344         15.3344         15.3344          0.0000          0.0000          0.0000
  18.2800         15.3179         15.3179         15.3179          0.0000          0.0000          0.0000
  18.3000         15.3061         15.3061         15.3061          0.0000          0.0000          0.0000
  18.3200         15.2953         15.2953         15.2953          0.0000          0.0000          0.0000
  18.3400         15.2832         15.2832         15.2832          0.0000          0.0000          0.0000
  18.3600         15.2690         15.2690         15.2690          0.0000          0.0000          0.0000
  18.3800         15.2526         15.2526         15.2526          0.0000          0.0000          0.0000
  18.4000         15.2350         15.2350         15.2350          0.0000          0.0000          0.0000
  18.4200         15.2180         15.2180         15.2180          0.0000          0.0000          0.0000
  18.4400         15.2032         15.2032         15.2032          0.0000          0.0000          0.0000
  18.4600         15.1930         15.1930         15.1930          0.0000          0.0000          0.0000
  18.4800         15.1889         15.1889         15.1889          0.0000          0.0000          0.0000
  18.5000         15.1923         15.1923         15.1923          0.0000          0.0000          0.0000
  18.5200         15.2038         15.2038         15.2038          0.0000          0.0000          0.0000
  18.5400         15.2230         15.2230         15.2230          0.0000          0.0000          0.0000
  18.5600         15.2492         15.2492         15.2492          0.0000          0.0000          0.0000
  18.5800         15.2811         15.2811         15.2811          0.0000          0.0000          0.0000
  18.6000         15.3174         15.3174         15.3174          0.0000          0.0000          0.0000
  18.6200         15.3569         15.3569         15.3569          0.0000          0.0000          0.0000
  18.6400         15.3990         15.3990         15.3990          0.0000          0.0000          0.0000
  18.6600         15.4431         15.4431         15.4431          0.0000          0.0000          0.0000
  18.6800         15.4889         15.4889         15.4889          0.0000          0.0000          0.0000
  18.7000         15.5359         15.5359         15.5359          0.0000          0.0000          0.0000
  18.7200         15.5836         15.5836         15.5836          0.0000          0.0000          0.0000
  18.7400         15.6309         15.6309         15.6309          0.0000          0.0000          0.0000
  18.7600         15.6767         15.6767         15.6767          0.0000          0.0000          0.0000
  18.7800         15.7194         15.7194         15.7194          0.0000          0.0000          0.0000
  18.8000         15.7580         15.7580         15.7580          0.0000          0.0000          0.0000
  18.8200         15.7915         15.7915         15.7915          0.0000          0.0000          0.0000
  18.8400         15.8201         15.8201         15.8201          0.0000          0.0000          0.0000
  18.8600         15.8452         15.8452         15.8452          0.0000          0.0000          0.0000
  18.8800         15.8698         15.8698         15.8698          0.0000          0.0000          0.0000
  18.9000         15.8982         15.8982         15.8982          0.0000          0.0000          0.0000
  18.9200         15.9356         15.9356         15.9356          0.0000          0.0000          0.0000
  18.9400         15.9873         15.9873         15.9873          0.0000          0.0000          0.0000
  18.9600         16.0575         16.0575         16.0575          0.0000          0.0000          0.0000
  18.9800         16.1489         16.1489         16.1489          0.0000          0.0000          0.0000
  19.0000         16.2617         16.2617         16.2617          0.0000          0.0000          0.0000
  19.0200         16.3945         16.3945         16.3945          0.0000          0.0000          0.0000
  19.0400         16.5443         16.5443         16.5443          0.0000          0.0000          0.0000
  19.0600         16.7081         16.7081         16.7081          0.0000          0.0000          0.0000
  19.0800         16.8835         16.8835         16.8835          0.0000          0.0000          0.0000
  19.1000         17.0691         17.0691         17.0691          0.0000          0.0000          0.0000
  19.1200         17.2648         17.2648         17.2648          0.0000          0.0000          0.0000
  19.1400         17.4708         17.4708         17.4708          0.0000          0.0000          0.0000
  19.1600         17.6877         17.6877         17.6877          0.0000          0.0000          0.0000
  19.1800         17.9151         17.9151         17.9151          0.0000          0.0000          0.0000
  19.2000         18.1520         18.1520         18.1520          0.0000          0.0000          0.0000
  19.2200         18.3967         18.3967         18.3967          0.0000          0.0000          0.0000
  19.2400         18.6478         18.6478         18.6478          0.0000          0.0000          0.0000
  19.2600         18.9048         18.9048         18.9048          0.0000          0.0000          0.0000
  19.2800         19.1685         19.1685         19.1685          0.0000          0.0000          0.0000
  19.3000         19.4411         19.4411         19.4411          0.0000          0.0000          0.0000
  19.3200         19.7256         19.7256         19.7256          0.0000          0.0000          0.0000
  19.3400         20.0249         20.0249         20.0249          0.0000          0.0000          0.0000
  19.3600         20.3409         20.3409         20.3409          0.0000          0.0000          0.0000
  19.3800         20.6734         20.6734         20.6734          0.0000          0.0000          0.0000
  19.4000         21.0204         21.0204         21.0204          0.0000          0.0000          0.0000
  19.4200         21.3778         21.3778         21.3778          0.0000          0.0000          0.0000
  19.4400         21.7408         21.7408         21.7408          0.0000          0.0000          0.0000
  19.4600         22.1048         22.1048         22.1048          0.0000          0.0000          0.0000
  19.4800         22.4658         22.4658         22.4658          0.0000          0.0000          0.0000
  19.5000         22.8216         22.8216         22.8216          0.0000          0.0000          0.0000
  19.5200         23.1715         23.1715         23.1715          0.0000          0.0000          0.0000
  19.5400         23.5158         23.5158         23.5158          0.0000          0.0000          0.0000
  19.5600         23.8554         23.8554         23.8554          0.0000          0.0000          0.0000
  19.5800         24.1903         24.1903         24.1903          0.0000          0.0000          0.0000
  19.6000         24.5196         24.5196         24.5196          0.0000          0.0000          0.0000
  19.6200         24.8410         24.8410         24.8410          0.0000          0.0000          0.0000
  19.6400         25.1512         25.1512         25.1512          0.0000          0.0000          0.0000
  19.6600         25.4470         25.4470         25.4470          0.0000          0.0000          0.0000
  19.6800         25.7258         25.7258         25.7258          0.0000          0.0000          0.0000
  19.7000         25.9866         25.9866         25.9866          0.0000          0.0000          0.0000
  19.7200         26.2299         26.2299         26.2299          0.0000          0.0000          0.0000
  19.7400         26.4580         26.4580         26.4580          0.0000          0.0000          0.0000
  19.7600         26.6744         26.6744         26.6744          0.0000          0.0000          0.0000
  19.7800         26.8830         26.8830         26.8830          0.0000          0.0000          0.0000
  19.8000         27.0879         27.0879         27.0879          0.0000          0.0000          0.0000
  19.8200         27.2920         27.2920         27.2920          0.0000          0.0000          0.0000
  19.8400         27.4976         27.4976         27.4976          0.0000          0.0000          0.0000
  19.8600         27.7053         27.7053         27.7053          0.0000          0.0000          0.0000
  19.8800         27.9143         27.9143         27.9143          0.0000          0.0000          0.0000
  19.9000         28.1215         28.1215         28.1215          0.0000          0.0000          0.0000
  19.9200         28.3214         28.3214         28.3214          0.0000          0.0000          0.0000
  19.9400         28.5038         28.5038         28.5038          0.0000          0.0000          0.0000
  19.9600         28.6512         28.6512         28.6512          0.0000          0.0000          0.0000
  19.9800         28.7369         28.7369         28.7369          0.0000          0.0000          0.0000
  20.0000         28.7266         28.7266         28.7266          0.0000          0.0000          0.0000
