### imag part of conductivity (in units of 10^15 sec^-1)
   0.0000          3.2898          3.2898          3.2898          0.0000          0.0000          0.0000
   0.0200          3.3200          3.3200          3.3200          0.0000          0.0000          0.0000
   0.0400          3.3501          3.3501          3.3501          0.0000          0.0000          0.0000
   0.0600          3.3802          3.3802          3.3802          0.0000          0.0000          0.0000
   0.0800          3.4102          3.4102          3.4102          0.0000          0.0000          0.0000
   0.1000          3.4400          3.4400          3.4400          0.0000          0.0000          0.0000
   0.1200          3.4697          3.4697          3.4697          0.0000          0.0000          0.0000
   0.1400          3.4992          3.4992          3.4992          0.0000          0.0000          0.0000
   0.1600          3.5285          3.5285          3.5285          0.0000          0.0000          0.0000
   0.1800          3.5575          3.5575          3.5575          0.0000          0.0000          0.0000
   0.2000          3.5863          3.5863          3.5863          0.0000          0.0000          0.0000
   0.2200          3.6147          3.6147          3.6147          0.0000          0.0000          0.0000
   0.2400          3.6428          3.6428          3.6428          0.0000          0.0000          0.0000
   0.2600          3.6705          3.6705          3.6705          0.0000          0.0000          0.0000
   0.2800          3.6978          3.6978          3.6978          0.0000          0.0000          0.0000
   0.3000          3.7247          3.7247          3.7247          0.0000          0.0000          0.0000
   0.3200          3.7511          3.7511          3.7511          0.0000          0.0000          0.0000
   0.3400          3.7770          3.7770          3.7770          0.0000          0.0000          0.0000
   0.3600          3.8024          3.8024          3.8024          0.0000          0.0000          0.0000
   0.3800          3.8273          3.8273          3.8273          0.0000          0.0000          0.0000
   0.4000          3.8517          3.8517          3.8517          0.0000          0.0000          0.0000
   0.4200          3.8754          3.8754          3.8754          0.0000          0.0000          0.0000
   0.4400          3.8986          3.8986          3.8986          0.0000          0.0000          0.0000
   0.4600          3.9211          3.9211          3.9211          0.0000          0.0000          0.0000
   0.4800          3.9430          3.9430          3.9430          0.0000          0.0000          0.0000
   0.5000          3.9643          3.9643          3.9643          0.0000          0.0000          0.0000
   0.5200          3.9848          3.9848          3.9848          0.0000          0.0000          0.0000
   0.5400          4.0046          4.0046          4.0046          0.0000          0.0000          0.0000
   0.5600          4.0238          4.0238          4.0238          0.0000          0.0000          0.0000
   0.5800          4.0421          4.0421          4.0421          0.0000          0.0000          0.0000
   0.6000          4.0598          4.0598          4.0598          0.0000          0.0000          0.0000
   0.6200          4.0766          4.0766          4.0766          0.0000          0.0000          0.0000
   0.6400          4.0927          4.0927          4.0927          0.0000          0.0000          0.0000
   0.6600          4.1080          4.1080          4.1080          0.0000          0.0000          0.0000
   0.6800          4.1224          4.1224          4.1224          0.0000          0.0000          0.0000
   0.7000          4.1361          4.1361          4.1361          0.0000          0.0000          0.0000
   0.7200          4.1489          4.1489          4.1489          0.0000          0.0000          0.0000
   0.7400          4.1609          4.1609          4.1609          0.0000          0.0000          0.0000
   0.7600          4.1720          4.1720          4.1720          0.0000          0.0000          0.0000
   0.7800          4.1822          4.1822          4.1822          0.0000          0.0000          0.0000
   0.8000          4.1916          4.1916          4.1916          0.0000          0.0000          0.0000
   0.8200          4.2001          4.2001          4.2001          0.0000          0.0000          0.0000
   0.8400          4.2077          4.2077          4.2077          0.0000          0.0000          0.0000
   0.8600          4.2144          4.2144          4.2144          0.0000          0.0000          0.0000
   0.8800          4.2202          4.2202          4.2202          0.0000          0.0000          0.0000
   0.9000          4.2251          4.2251          4.2251          0.0000          0.0000          0.0000
   0.9200          4.2290          4.2290          4.2290          0.0000          0.0000          0.0000
   0.9400          4.2320          4.2320          4.2320          0.0000          0.0000          0.0000
   0.9600          4.2341          4.2341          4.2341          0.0000          0.0000          0.0000
   0.9800          4.2353          4.2353          4.2353          0.0000          0.0000          0.0000
   1.0000          4.2355          4.2355          4.2355          0.0000          0.0000          0.0000
   1.0200          4.2347          4.2347          4.2347          0.0000          0.0000          0.0000
   1.0400          4.2330          4.2330          4.2330          0.0000          0.0000          0.0000
   1.0600          4.2303          4.2303          4.2303          0.0000          0.0000          0.0000
   1.0800          4.2266          4.2266          4.2266          0.0000          0.0000          0.0000
   1.1000          4.2220          4.2220          4.2220          0.0000          0.0000          0.0000
   1.1200          4.2163          4.2163          4.2163          0.0000          0.0000          0.0000
   1.1400          4.2097          4.2097          4.2097          0.0000          0.0000          0.0000
   1.1600          4.2020          4.2020          4.2020          0.0000          0.0000          0.0000
   1.1800          4.1933          4.1933          4.1933          0.0000          0.0000          0.0000
   1.2000          4.1835          4.1835          4.1835          0.0000          0.0000          0.0000
   1.2200          4.1727          4.1727          4.1727          0.0000          0.0000          0.0000
   1.2400          4.1609          4.1609          4.1609          0.0000          0.0000          0.0000
   1.2600          4.1479          4.1479          4.1479          0.0000          0.0000          0.0000
   1.2800          4.1338          4.1338          4.1338          0.0000          0.0000          0.0000
   1.3000          4.1186          4.1186          4.1186          0.0000          0.0000          0.0000
   1.3200          4.1023          4.1023          4.1023          0.0000          0.0000          0.0000
   1.3400          4.0847          4.0847          4.0847          0.0000          0.0000          0.0000
   1.3600          4.0660          4.0660          4.0660          0.0000          0.0000          0.0000
   1.3800          4.0460          4.0460          4.0460          0.0000          0.0000          0.0000
   1.4000          4.0248          4.0248          4.0248          0.0000          0.0000          0.0000
   1.4200          4.0022          4.0022          4.0022          0.0000          0.0000          0.0000
   1.4400          3.9783          3.9783          3.9783          0.0000          0.0000          0.0000
   1.4600          3.9529          3.9529          3.9529          0.0000          0.0000          0.0000
   1.4800          3.9261          3.9261          3.9261          0.0000          0.0000          0.0000
   1.5000          3.8978          3.8978          3.8978          0.0000          0.0000          0.0000
   1.5200          3.8678          3.8678          3.8678          0.0000          0.0000          0.0000
   1.5400          3.8362          3.8362          3.8362          0.0000          0.0000          0.0000
   1.5600          3.8029          3.8029          3.8029          0.0000          0.0000          0.0000
   1.5800          3.7678          3.7678          3.7678          0.0000          0.0000          0.0000
   1.6000          3.7308          3.7308          3.7308          0.0000          0.0000          0.0000
   1.6200          3.6919          3.6919          3.6919          0.0000          0.0000          0.0000
   1.6400          3.6510          3.6510          3.6510          0.0000          0.0000          0.0000
   1.6600          3.6080          3.6080          3.6080          0.0000          0.0000          0.0000
   1.6800          3.5629          3.5629          3.5629          0.0000          0.0000          0.0000
   1.7000          3.5157          3.5157          3.5157          0.0000          0.0000          0.0000
   1.7200          3.4665          3.4665          3.4665          0.0000          0.0000          0.0000
   1.7400          3.4153          3.4153          3.4153          0.0000          0.0000          0.0000
   1.7600          3.3625          3.3625          3.3625          0.0000          0.0000          0.0000
   1.7800          3.3084          3.3084          3.3084          0.0000          0.0000          0.0000
   1.8000          3.2539          3.2539          3.2539          0.0000          0.0000          0.0000
   1.8200          3.1997          3.1997          3.1997          0.0000          0.0000          0.0000
   1.8400          3.1469          3.1469          3.1469          0.0000          0.0000          0.0000
   1.8600          3.0968          3.0968          3.0968          0.0000          0.0000          0.0000
   1.8800          3.0504          3.0504          3.0504          0.0000          0.0000          0.0000
   1.9000          3.0087          3.0087          3.0087          0.0000          0.0000          0.0000
   1.9200          2.9722          2.9722          2.9722          0.0000          0.0000          0.0000
   1.9400          2.9409          2.9409          2.9409          0.0000          0.0000          0.0000
   1.9600          2.9139          2.9139          2.9139          0.0000          0.0000          0.0000
   1.9800          2.8903          2.8903          2.8903          0.0000          0.0000          0.0000
   2.0000          2.8684          2.8684          2.8684          0.0000          0.0000          0.0000
   2.0200          2.8471          2.8471          2.8471          0.0000          0.0000          0.0000
   2.0400          2.8254          2.8254          2.8254          0.0000          0.0000          0.0000
   2.0600          2.8029          2.8029          2.8029          0.0000          0.0000          0.0000
   2.0800          2.7801          2.7801          2.7801          0.0000          0.0000          0.0000
   2.1000          2.7579          2.7579          2.7579          0.0000          0.0000          0.0000
   2.1200          2.7377          2.7377          2.7377          0.0000          0.0000          0.0000
   2.1400          2.7211          2.7211          2.7211          0.0000          0.0000          0.0000
   2.1600          2.7095          2.7095          2.7095          0.0000          0.0000          0.0000
   2.1800          2.7043          2.7043          2.7043          0.0000          0.0000          0.0000
   2.2000          2.7063          2.7063          2.7063          0.0000          0.0000          0.0000
   2.2200          2.7161          2.7161          2.7161          0.0000          0.0000          0.0000
   2.2400          2.7339          2.7339          2.7339          0.0000          0.0000          0.0000
   2.2600          2.7596          2.7596          2.7596          0.0000          0.0000          0.0000
   2.2800          2.7928          2.7928          2.7928          0.0000          0.0000          0.0000
   2.3000          2.8326          2.8326          2.8326          0.0000          0.0000          0.0000
   2.3200          2.8783          2.8783          2.8783          0.0000          0.0000          0.0000
   2.3400          2.9284          2.9284          2.9284          0.0000          0.0000          0.0000
   2.3600          2.9814          2.9814          2.9814          0.0000          0.0000          0.0000
   2.3800          3.0354          3.0354          3.0354          0.0000          0.0000          0.0000
   2.4000          3.0881          3.0881          3.0881          0.0000          0.0000          0.0000
   2.4200          3.1375          3.1375          3.1375          0.0000          0.0000          0.0000
   2.4400          3.1816          3.1816          3.1816          0.0000          0.0000          0.0000
   2.4600          3.2187          3.2187          3.2187          0.0000          0.0000          0.0000
   2.4800          3.2478          3.2478          3.2478          0.0000          0.0000          0.0000
   2.5000          3.2684          3.2684          3.2684          0.0000          0.0000          0.0000
   2.5200          3.2804          3.2804          3.2804          0.0000          0.0000          0.0000
   2.5400          3.2843          3.2843          3.2843          0.0000          0.0000          0.0000
   2.5600          3.2811          3.2811          3.2811          0.0000          0.0000          0.0000
   2.5800          3.2719          3.2719          3.2719          0.0000          0.0000          0.0000
   2.6000          3.2582          3.2582          3.2582          0.0000          0.0000          0.0000
   2.6200          3.2419          3.2419          3.2419          0.0000          0.0000          0.0000
   2.6400          3.2246          3.2246          3.2246          0.0000          0.0000          0.0000
   2.6600          3.2084          3.2084          3.2084          0.0000          0.0000          0.0000
   2.6800          3.1949          3.1949          3.1949          0.0000          0.0000          0.0000
   2.7000          3.1858          3.1858          3.1858          0.0000          0.0000          0.0000
   2.7200          3.1825          3.1825          3.1825          0.0000          0.0000          0.0000
   2.7400          3.1859          3.1859          3.1859          0.0000          0.0000          0.0000
   2.7600          3.1965          3.1965          3.1965          0.0000          0.0000          0.0000
   2.7800          3.2142          3.2142          3.2142          0.0000          0.0000          0.0000
   2.8000          3.2386          3.2386          3.2386          0.0000          0.0000          0.0000
   2.8200          3.2687          3.2687          3.2687          0.0000          0.0000          0.0000
   2.8400          3.3030          3.3030          3.3030          0.0000          0.0000          0.0000
   2.8600          3.3397          3.3397          3.3397          0.0000          0.0000          0.0000
   2.8800          3.3763          3.3763          3.3763          0.0000          0.0000          0.0000
   2.9000          3.4102          3.4102          3.4102          0.0000          0.0000          0.0000
   2.9200          3.4387          3.4387          3.4387          0.0000          0.0000          0.0000
   2.9400          3.4595          3.4595          3.4595          0.0000          0.0000          0.0000
   2.9600          3.4708          3.4708          3.4708          0.0000          0.0000          0.0000
   2.9800          3.4720          3.4720          3.4720          0.0000          0.0000          0.0000
   3.0000          3.4633          3.4633          3.4633          0.0000          0.0000          0.0000
   3.0200          3.4458          3.4458          3.4458          0.0000          0.0000          0.0000
   3.0400          3.4216          3.4216          3.4216          0.0000          0.0000          0.0000
   3.0600          3.3927          3.3927          3.3927          0.0000          0.0000          0.0000
   3.0800          3.3615          3.3615          3.3615          0.0000          0.0000          0.0000
   3.1000          3.3300          3.3300          3.3300          0.0000          0.0000          0.0000
   3.1200          3.2998          3.2998          3.2998          0.0000          0.0000          0.0000
   3.1400          3.2722          3.2722          3.2722          0.0000          0.0000          0.0000
   3.1600          3.2484          3.2484          3.2484          0.0000          0.0000          0.0000
   3.1800          3.2296          3.2296          3.2296          0.0000          0.0000          0.0000
   3.2000          3.2175          3.2175          3.2175          0.0000          0.0000          0.0000
   3.2200          3.2139          3.2139          3.2139          0.0000          0.0000          0.0000
   3.2400          3.2213          3.2213          3.2213          0.0000          0.0000          0.0000
   3.2600          3.2417          3.2417          3.2417          0.0000          0.0000          0.0000
   3.2800          3.2759          3.2759          3.2759          0.0000          0.0000          0.0000
   3.3000          3.3233          3.3233          3.3233          0.0000          0.0000          0.0000
   3.3200          3.3812          3.3812          3.3812          0.0000          0.0000          0.0000
   3.3400          3.4450          3.4450          3.4450          0.0000          0.0000          0.0000
   3.3600          3.5094          3.5094          3.5094          0.0000          0.0000          0.0000
   3.3800          3.5691          3.5691          3.5691          0.0000          0.0000          0.0000
   3.4000          3.6202          3.6202          3.6202          0.0000          0.0000          0.0000
   3.4200          3.6613          3.6613          3.6613          0.0000          0.0000          0.0000
   3.4400          3.6929          3.6929          3.6929          0.0000          0.0000          0.0000
   3.4600          3.7181          3.7181          3.7181          0.0000          0.0000          0.0000
   3.4800          3.7405          3.7405          3.7405          0.0000          0.0000          0.0000
   3.5000          3.7638          3.7638          3.7638          0.0000          0.0000          0.0000
   3.5200          3.7903          3.7903          3.7903          0.0000          0.0000          0.0000
   3.5400          3.8206          3.8206          3.8206          0.0000          0.0000          0.0000
   3.5600          3.8533          3.8533          3.8533          0.0000          0.0000          0.0000
   3.5800          3.8857          3.8857          3.8857          0.0000          0.0000          0.0000
   3.6000          3.9141          3.9141          3.9141          0.0000          0.0000          0.0000
   3.6200          3.9350          3.9350          3.9350          0.0000          0.0000          0.0000
   3.6400          3.9455          3.9455          3.9455          0.0000          0.0000          0.0000
   3.6600          3.9442          3.9442          3.9442          0.0000          0.0000          0.0000
   3.6800          3.9311          3.9311          3.9311          0.0000          0.0000          0.0000
   3.7000          3.9074          3.9074          3.9074          0.0000          0.0000          0.0000
   3.7200          3.8757          3.8757          3.8757          0.0000          0.0000          0.0000
   3.7400          3.8390          3.8390          3.8390          0.0000          0.0000          0.0000
   3.7600          3.8006          3.8006          3.8006          0.0000          0.0000          0.0000
   3.7800          3.7641          3.7641          3.7641          0.0000          0.0000          0.0000
   3.8000          3.7326          3.7326          3.7326          0.0000          0.0000          0.0000
   3.8200          3.7090          3.7090          3.7090          0.0000          0.0000          0.0000
   3.8400          3.6957          3.6957          3.6957          0.0000          0.0000          0.0000
   3.8600          3.6949          3.6949          3.6949          0.0000          0.0000          0.0000
   3.8800          3.7078          3.7078          3.7078          0.0000          0.0000          0.0000
   3.9000          3.7347          3.7347          3.7347          0.0000          0.0000          0.0000
   3.9200          3.7747          3.7747          3.7747          0.0000          0.0000          0.0000
   3.9400          3.8259          3.8259          3.8259          0.0000          0.0000          0.0000
   3.9600          3.8849          3.8849          3.8849          0.0000          0.0000          0.0000
   3.9800          3.9475          3.9475          3.9475          0.0000          0.0000          0.0000
   4.0000          4.0093          4.0093          4.0093          0.0000          0.0000          0.0000
   4.0200          4.0658          4.0658          4.0658          0.0000          0.0000          0.0000
   4.0400          4.1136          4.1136          4.1136          0.0000          0.0000          0.0000
   4.0600          4.1499          4.1499          4.1499          0.0000          0.0000          0.0000
   4.0800          4.1736          4.1736          4.1736          0.0000          0.0000          0.0000
   4.1000          4.1846          4.1846          4.1846          0.0000          0.0000          0.0000
   4.1200          4.1840          4.1840          4.1840          0.0000          0.0000          0.0000
   4.1400          4.1735          4.1735          4.1735          0.0000          0.0000          0.0000
   4.1600          4.1553          4.1553          4.1553          0.0000          0.0000          0.0000
   4.1800          4.1313          4.1313          4.1313          0.0000          0.0000          0.0000
   4.2000          4.1033          4.1033          4.1033          0.0000          0.0000          0.0000
   4.2200          4.0725          4.0725          4.0725          0.0000          0.0000          0.0000
   4.2400          4.0396          4.0396          4.0396          0.0000          0.0000          0.0000
   4.2600          4.0052          4.0052          4.0052          0.0000          0.0000          0.0000
   4.2800          3.9699          3.9699          3.9699          0.0000          0.0000          0.0000
   4.3000          3.9348          3.9348          3.9348          0.0000          0.0000          0.0000
   4.3200          3.9013          3.9013          3.9013          0.0000          0.0000          0.0000
   4.3400          3.8714          3.8714          3.8714          0.0000          0.0000          0.0000
   4.3600          3.8473          3.8473          3.8473          0.0000          0.0000          0.0000
   4.3800          3.8308          3.8308          3.8308          0.0000          0.0000          0.0000
   4.4000          3.8232          3.8232          3.8232          0.0000          0.0000          0.0000
   4.4200          3.8244          3.8244          3.8244          0.0000          0.0000          0.0000
   4.4400          3.8336          3.8336          3.8336          0.0000          0.0000          0.0000
   4.4600          3.8486          3.8486          3.8486          0.0000          0.0000          0.0000
   4.4800          3.8669          3.8669          3.8669          0.0000          0.0000          0.0000
   4.5000          3.8855          3.8855          3.8855          0.0000          0.0000          0.0000
   4.5200          3.9020          3.9020          3.9020          0.0000          0.0000          0.0000
   4.5400          3.9144          3.9144          3.9144          0.0000          0.0000          0.0000
   4.5600          3.9216          3.9216          3.9216          0.0000          0.0000          0.0000
   4.5800          3.9229          3.9229          3.9229          0.0000          0.0000          0.0000
   4.6000          3.9179          3.9179          3.9179          0.0000          0.0000          0.0000
   4.6200          3.9065          3.9065          3.9065          0.0000          0.0000          0.0000
   4.6400          3.8887          3.8887          3.8887          0.0000          0.0000          0.0000
   4.6600          3.8647          3.8647          3.8647          0.0000          0.0000          0.0000
   4.6800          3.8349          3.8349          3.8349          0.0000          0.0000          0.0000
   4.7000          3.8004          3.8004          3.8004          0.0000          0.0000          0.0000
   4.7200          3.7626          3.7626          3.7626          0.0000          0.0000          0.0000
   4.7400          3.7237          3.7237          3.7237          0.0000          0.0000          0.0000
   4.7600          3.6856          3.6856          3.6856          0.0000          0.0000          0.0000
   4.7800          3.6505          3.6505          3.6505          0.0000          0.0000          0.0000
   4.8000          3.6200          3.6200          3.6200          0.0000          0.0000          0.0000
   4.8200          3.5953          3.5953          3.5953          0.0000          0.0000          0.0000
   4.8400          3.5772          3.5772          3.5772          0.0000          0.0000          0.0000
   4.8600          3.5658          3.5658          3.5658          0.0000          0.0000          0.0000
   4.8800          3.5608          3.5608          3.5608          0.0000          0.0000          0.0000
   4.9000          3.5617          3.5617          3.5617          0.0000          0.0000          0.0000
   4.9200          3.5674          3.5674          3.5674          0.0000          0.0000          0.0000
   4.9400          3.5768          3.5768          3.5768          0.0000          0.0000          0.0000
   4.9600          3.5882          3.5882          3.5882          0.0000          0.0000          0.0000
   4.9800          3.6000          3.6000          3.6000          0.0000          0.0000          0.0000
   5.0000          3.6105          3.6105          3.6105          0.0000          0.0000          0.0000
   5.0200          3.6180          3.6180          3.6180          0.0000          0.0000          0.0000
   5.0400          3.6215          3.6215          3.6215          0.0000          0.0000          0.0000
   5.0600          3.6202          3.6202          3.6202          0.0000          0.0000          0.0000
   5.0800          3.6138          3.6138          3.6138          0.0000          0.0000          0.0000
   5.1000          3.6023          3.6023          3.6023          0.0000          0.0000          0.0000
   5.1200          3.5861          3.5861          3.5861          0.0000          0.0000          0.0000
   5.1400          3.5652          3.5652          3.5652          0.0000          0.0000          0.0000
   5.1600          3.5401          3.5401          3.5401          0.0000          0.0000          0.0000
   5.1800          3.5110          3.5110          3.5110          0.0000          0.0000          0.0000
   5.2000          3.4785          3.4785          3.4785          0.0000          0.0000          0.0000
   5.2200          3.4436          3.4436          3.4436          0.0000          0.0000          0.0000
   5.2400          3.4074          3.4074          3.4074          0.0000          0.0000          0.0000
   5.2600          3.3716          3.3716          3.3716          0.0000          0.0000          0.0000
   5.2800          3.3374          3.3374          3.3374          0.0000          0.0000          0.0000
   5.3000          3.3062          3.3062          3.3062          0.0000          0.0000          0.0000
   5.3200          3.2788          3.2788          3.2788          0.0000          0.0000          0.0000
   5.3400          3.2554          3.2554          3.2554          0.0000          0.0000          0.0000
   5.3600          3.2360          3.2360          3.2360          0.0000          0.0000          0.0000
   5.3800          3.2199          3.2199          3.2199          0.0000          0.0000          0.0000
   5.4000          3.2067          3.2067          3.2067          0.0000          0.0000          0.0000
   5.4200          3.1959          3.1959          3.1959          0.0000          0.0000          0.0000
   5.4400          3.1870          3.1870          3.1870          0.0000          0.0000          0.0000
   5.4600          3.1797          3.1797          3.1797          0.0000          0.0000          0.0000
   5.4800          3.1738          3.1738          3.1738          0.0000          0.0000          0.0000
   5.5000          3.1691          3.1691          3.1691          0.0000          0.0000          0.0000
   5.5200          3.1655          3.1655          3.1655          0.0000          0.0000          0.0000
   5.5400          3.1627          3.1627          3.1627          0.0000          0.0000          0.0000
   5.5600          3.1608          3.1608          3.1608          0.0000          0.0000          0.0000
   5.5800          3.1595          3.1595          3.1595          0.0000          0.0000          0.0000
   5.6000          3.1590          3.1590          3.1590          0.0000          0.0000          0.0000
   5.6200          3.1589          3.1589          3.1589          0.0000          0.0000          0.0000
   5.6400          3.1590          3.1590          3.1590          0.0000          0.0000          0.0000
   5.6600          3.1588          3.1588          3.1588          0.0000          0.0000          0.0000
   5.6800          3.1576          3.1576          3.1576          0.0000          0.0000          0.0000
   5.7000          3.1547          3.1547          3.1547          0.0000          0.0000          0.0000
   5.7200          3.1490          3.1490          3.1490          0.0000          0.0000          0.0000
   5.7400          3.1397          3.1397          3.1397          0.0000          0.0000          0.0000
   5.7600          3.1261          3.1261          3.1261          0.0000          0.0000          0.0000
   5.7800          3.1078          3.1078          3.1078          0.0000          0.0000          0.0000
   5.8000          3.0847          3.0847          3.0847          0.0000          0.0000          0.0000
   5.8200          3.0575          3.0575          3.0575          0.0000          0.0000          0.0000
   5.8400          3.0269          3.0269          3.0269          0.0000          0.0000          0.0000
   5.8600          2.9941          2.9941          2.9941          0.0000          0.0000          0.0000
   5.8800          2.9604          2.9604          2.9604          0.0000          0.0000          0.0000
   5.9000          2.9273          2.9273          2.9273          0.0000          0.0000          0.0000
   5.9200          2.8959          2.8959          2.8959          0.0000          0.0000          0.0000
   5.9400          2.8672          2.8672          2.8672          0.0000          0.0000          0.0000
   5.9600          2.8420          2.8420          2.8420          0.0000          0.0000          0.0000
   5.9800          2.8206          2.8206          2.8206          0.0000          0.0000          0.0000
   6.0000          2.8033          2.8033          2.8033          0.0000          0.0000          0.0000
   6.0200          2.7900          2.7900          2.7900          0.0000          0.0000          0.0000
   6.0400          2.7801          2.7801          2.7801          0.0000          0.0000          0.0000
   6.0600          2.7732          2.7732          2.7732          0.0000          0.0000          0.0000
   6.0800          2.7685          2.7685          2.7685          0.0000          0.0000          0.0000
   6.1000          2.7651          2.7651          2.7651          0.0000          0.0000          0.0000
   6.1200          2.7624          2.7624          2.7624          0.0000          0.0000          0.0000
   6.1400          2.7597          2.7597          2.7597          0.0000          0.0000          0.0000
   6.1600          2.7560          2.7560          2.7560          0.0000          0.0000          0.0000
   6.1800          2.7507          2.7507          2.7507          0.0000          0.0000          0.0000
   6.2000          2.7427          2.7427          2.7427          0.0000          0.0000          0.0000
   6.2200          2.7310          2.7310          2.7310          0.0000          0.0000          0.0000
   6.2400          2.7150          2.7150          2.7150          0.0000          0.0000          0.0000
   6.2600          2.6942          2.6942          2.6942          0.0000          0.0000          0.0000
   6.2800          2.6691          2.6691          2.6691          0.0000          0.0000          0.0000
   6.3000          2.6408          2.6408          2.6408          0.0000          0.0000          0.0000
   6.3200          2.6112          2.6112          2.6112          0.0000          0.0000          0.0000
   6.3400          2.5826          2.5826          2.5826          0.0000          0.0000          0.0000
   6.3600          2.5576          2.5576          2.5576          0.0000          0.0000          0.0000
   6.3800          2.5387          2.5387          2.5387          0.0000          0.0000          0.0000
   6.4000          2.5278          2.5278          2.5278          0.0000          0.0000          0.0000
   6.4200          2.5262          2.5262          2.5262          0.0000          0.0000          0.0000
   6.4400          2.5341          2.5341          2.5341          0.0000          0.0000          0.0000
   6.4600          2.5513          2.5513          2.5513          0.0000          0.0000          0.0000
   6.4800          2.5765          2.5765          2.5765          0.0000          0.0000          0.0000
   6.5000          2.6079          2.6079          2.6079          0.0000          0.0000          0.0000
   6.5200          2.6435          2.6435          2.6435          0.0000          0.0000          0.0000
   6.5400          2.6812          2.6812          2.6812          0.0000          0.0000          0.0000
   6.5600          2.7188          2.7188          2.7188          0.0000          0.0000          0.0000
   6.5800          2.7549          2.7549          2.7549          0.0000          0.0000          0.0000
   6.6000          2.7882          2.7882          2.7882          0.0000          0.0000          0.0000
   6.6200          2.8182          2.8182          2.8182          0.0000          0.0000          0.0000
   6.6400          2.8450          2.8450          2.8450          0.0000          0.0000          0.0000
   6.6600          2.8694          2.8694          2.8694          0.0000          0.0000          0.0000
   6.6800          2.8923          2.8923          2.8923          0.0000          0.0000          0.0000
   6.7000          2.9146          2.9146          2.9146          0.0000          0.0000          0.0000
   6.7200          2.9369          2.9369          2.9369          0.0000          0.0000          0.0000
   6.7400          2.9592          2.9592          2.9592          0.0000          0.0000          0.0000
   6.7600          2.9812          2.9812          2.9812          0.0000          0.0000          0.0000
   6.7800          3.0017          3.0017          3.0017          0.0000          0.0000          0.0000
   6.8000          3.0197          3.0197          3.0197          0.0000          0.0000          0.0000
   6.8200          3.0345          3.0345          3.0345          0.0000          0.0000          0.0000
   6.8400          3.0459          3.0459          3.0459          0.0000          0.0000          0.0000
   6.8600          3.0545          3.0545          3.0545          0.0000          0.0000          0.0000
   6.8800          3.0615          3.0615          3.0615          0.0000          0.0000          0.0000
   6.9000          3.0685          3.0685          3.0685          0.0000          0.0000          0.0000
   6.9200          3.0770          3.0770          3.0770          0.0000          0.0000          0.0000
   6.9400          3.0881          3.0881          3.0881          0.0000          0.0000          0.0000
   6.9600          3.1019          3.1019          3.1019          0.0000          0.0000          0.0000
   6.9800          3.1181          3.1181          3.1181          0.0000          0.0000          0.0000
   7.0000          3.1350          3.1350          3.1350          0.0000          0.0000          0.0000
   7.0200          3.1510          3.1510          3.1510          0.0000          0.0000          0.0000
   7.0400          3.1642          3.1642          3.1642          0.0000          0.0000          0.0000
   7.0600          3.1729          3.1729          3.1729          0.0000          0.0000          0.0000
   7.0800          3.1765          3.1765          3.1765          0.0000          0.0000          0.0000
   7.1000          3.1753          3.1753          3.1753          0.0000          0.0000          0.0000
   7.1200          3.1707          3.1707          3.1707          0.0000          0.0000          0.0000
   7.1400          3.1653          3.1653          3.1653          0.0000          0.0000          0.0000
   7.1600          3.1619          3.1619          3.1619          0.0000          0.0000          0.0000
   7.1800          3.1635          3.1635          3.1635          0.0000          0.0000          0.0000
   7.2000          3.1725          3.1725          3.1725          0.0000          0.0000          0.0000
   7.2200          3.1902          3.1902          3.1902          0.0000          0.0000          0.0000
   7.2400          3.2165          3.2165          3.2165          0.0000          0.0000          0.0000
   7.2600          3.2504          3.2504          3.2504          0.0000          0.0000          0.0000
   7.2800          3.2899          3.2899          3.2899          0.0000          0.0000          0.0000
   7.3000          3.3327          3.3327          3.3327          0.0000          0.0000          0.0000
   7.3200          3.3766          3.3766          3.3766          0.0000          0.0000          0.0000
   7.3400          3.4201          3.4201          3.4201          0.0000          0.0000          0.0000
   7.3600          3.4619          3.4619          3.4619          0.0000          0.0000          0.0000
   7.3800          3.5013          3.5013          3.5013          0.0000          0.0000          0.0000
   7.4000          3.5379          3.5379          3.5379          0.0000          0.0000          0.0000
   7.4200          3.5714          3.5714          3.5714          0.0000          0.0000          0.0000
   7.4400          3.6015          3.6015          3.6015          0.0000          0.0000          0.0000
   7.4600          3.6282          3.6282          3.6282          0.0000          0.0000          0.0000
   7.4800          3.6514          3.6514          3.6514          0.0000          0.0000          0.0000
   7.5000          3.6718          3.6718          3.6718          0.0000          0.0000          0.0000
   7.5200          3.6901          3.6901          3.6901          0.0000          0.0000          0.0000
   7.5400          3.7074          3.7074          3.7074          0.0000          0.0000          0.0000
   7.5600          3.7248          3.7248          3.7248          0.0000          0.0000          0.0000
   7.5800          3.7434          3.7434          3.7434          0.0000          0.0000          0.0000
   7.6000          3.7640          3.7640          3.7640          0.0000          0.0000          0.0000
   7.6200          3.7873          3.7873          3.7873          0.0000          0.0000          0.0000
   7.6400          3.8134          3.8134          3.8134          0.0000          0.0000          0.0000
   7.6600          3.8424          3.8424          3.8424          0.0000          0.0000          0.0000
   7.6800          3.8738          3.8738          3.8738          0.0000          0.0000          0.0000
   7.7000          3.9067          3.9067          3.9067          0.0000          0.0000          0.0000
   7.7200          3.9400          3.9400          3.9400          0.0000          0.0000          0.0000
   7.7400          3.9722          3.9722          3.9722          0.0000          0.0000          0.0000
   7.7600          4.0015          4.0015          4.0015          0.0000          0.0000          0.0000
   7.7800          4.0261          4.0261          4.0261          0.0000          0.0000          0.0000
   7.8000          4.0444          4.0444          4.0444          0.0000          0.0000          0.0000
   7.8200          4.0550          4.0550          4.0550          0.0000          0.0000          0.0000
   7.8400          4.0574          4.0574          4.0574          0.0000          0.0000          0.0000
   7.8600          4.0517          4.0517          4.0517          0.0000          0.0000          0.0000
   7.8800          4.0389          4.0389          4.0389          0.0000          0.0000          0.0000
   7.9000          4.0204          4.0204          4.0204          0.0000          0.0000          0.0000
   7.9200          3.9982          3.9982          3.9982          0.0000          0.0000          0.0000
   7.9400          3.9746          3.9746          3.9746          0.0000          0.0000          0.0000
   7.9600          3.9518          3.9518          3.9518          0.0000          0.0000          0.0000
   7.9800          3.9321          3.9321          3.9321          0.0000          0.0000          0.0000
   8.0000          3.9176          3.9176          3.9176          0.0000          0.0000          0.0000
   8.0200          3.9106          3.9106          3.9106          0.0000          0.0000          0.0000
   8.0400          3.9133          3.9133          3.9133          0.0000          0.0000          0.0000
   8.0600          3.9277          3.9277          3.9277          0.0000          0.0000          0.0000
   8.0800          3.9550          3.9550          3.9550          0.0000          0.0000          0.0000
   8.1000          3.9955          3.9955          3.9955          0.0000          0.0000          0.0000
   8.1200          4.0483          4.0483          4.0483          0.0000          0.0000          0.0000
   8.1400          4.1108          4.1108          4.1108          0.0000          0.0000          0.0000
   8.1600          4.1793          4.1793          4.1793          0.0000          0.0000          0.0000
   8.1800          4.2496          4.2496          4.2496          0.0000          0.0000          0.0000
   8.2000          4.3172          4.3172          4.3172          0.0000          0.0000          0.0000
   8.2200          4.3783          4.3783          4.3783          0.0000          0.0000          0.0000
   8.2400          4.4300          4.4300          4.4300          0.0000          0.0000          0.0000
   8.2600          4.4708          4.4708          4.4708          0.0000          0.0000          0.0000
   8.2800          4.5002          4.5002          4.5002          0.0000          0.0000          0.0000
   8.3000          4.5185          4.5185          4.5185          0.0000          0.0000          0.0000
   8.3200          4.5265          4.5265          4.5265          0.0000          0.0000          0.0000
   8.3400          4.5249          4.5249          4.5249          0.0000          0.0000          0.0000
   8.3600          4.5142          4.5142          4.5142          0.0000          0.0000          0.0000
   8.3800          4.4950          4.4950          4.4950          0.0000          0.0000          0.0000
   8.4000          4.4679          4.4679          4.4679          0.0000          0.0000          0.0000
   8.4200          4.4338          4.4338          4.4338          0.0000          0.0000          0.0000
   8.4400          4.3942          4.3942          4.3942          0.0000          0.0000          0.0000
   8.4600          4.3513          4.3513          4.3513          0.0000          0.0000          0.0000
   8.4800          4.3079          4.3079          4.3079          0.0000          0.0000          0.0000
   8.5000          4.2672          4.2672          4.2672          0.0000          0.0000          0.0000
   8.5200          4.2323          4.2323          4.2323          0.0000          0.0000          0.0000
   8.5400          4.2061          4.2061          4.2061          0.0000          0.0000          0.0000
   8.5600          4.1905          4.1905          4.1905          0.0000          0.0000          0.0000
   8.5800          4.1868          4.1868          4.1868          0.0000          0.0000          0.0000
   8.6000          4.1952          4.1952          4.1952          0.0000          0.0000          0.0000
   8.6200          4.2151          4.2151          4.2151          0.0000          0.0000          0.0000
   8.6400          4.2451          4.2451          4.2451          0.0000          0.0000          0.0000
   8.6600          4.2834          4.2834          4.2834          0.0000          0.0000          0.0000
   8.6800          4.3281          4.3281          4.3281          0.0000          0.0000          0.0000
   8.7000          4.3768          4.3768          4.3768          0.0000          0.0000          0.0000
   8.7200          4.4274          4.4274          4.4274          0.0000          0.0000          0.0000
   8.7400          4.4778          4.4778          4.4778          0.0000          0.0000          0.0000
   8.7600          4.5261          4.5261          4.5261          0.0000          0.0000          0.0000
   8.7800          4.5707          4.5707          4.5707          0.0000          0.0000          0.0000
   8.8000          4.6107          4.6107          4.6107          0.0000          0.0000          0.0000
   8.8200          4.6453          4.6453          4.6453          0.0000          0.0000          0.0000
   8.8400          4.6743          4.6743          4.6743          0.0000          0.0000          0.0000
   8.8600          4.6975          4.6975          4.6975          0.0000          0.0000          0.0000
   8.8800          4.7153          4.7153          4.7153          0.0000          0.0000          0.0000
   8.9000          4.7277          4.7277          4.7277          0.0000          0.0000          0.0000
   8.9200          4.7353          4.7353          4.7353          0.0000          0.0000          0.0000
   8.9400          4.7384          4.7384          4.7384          0.0000          0.0000          0.0000
   8.9600          4.7379          4.7379          4.7379          0.0000          0.0000          0.0000
   8.9800          4.7344          4.7344          4.7344          0.0000          0.0000          0.0000
   9.0000          4.7288          4.7288          4.7288          0.0000          0.0000          0.0000
   9.0200          4.7216          4.7216          4.7216          0.0000          0.0000          0.0000
   9.0400          4.7134          4.7134          4.7134          0.0000          0.0000          0.0000
   9.0600          4.7043          4.7043          4.7043          0.0000          0.0000          0.0000
   9.0800          4.6944          4.6944          4.6944          0.0000          0.0000          0.0000
   9.1000          4.6839          4.6839          4.6839          0.0000          0.0000          0.0000
   9.1200          4.6726          4.6726          4.6726          0.0000          0.0000          0.0000
   9.1400          4.6608          4.6608          4.6608          0.0000          0.0000          0.0000
   9.1600          4.6487          4.6487          4.6487          0.0000          0.0000          0.0000
   9.1800          4.6365          4.6365          4.6365          0.0000          0.0000          0.0000
   9.2000          4.6240          4.6240          4.6240          0.0000          0.0000          0.0000
   9.2200          4.6111          4.6111          4.6111          0.0000          0.0000          0.0000
   9.2400          4.5974          4.5974          4.5974          0.0000          0.0000          0.0000
   9.2600          4.5821          4.5821          4.5821          0.0000          0.0000          0.0000
   9.2800          4.5650          4.5650          4.5650          0.0000          0.0000          0.0000
   9.3000          4.5459          4.5459          4.5459          0.0000          0.0000          0.0000
   9.3200          4.5253          4.5253          4.5253          0.0000          0.0000          0.0000
   9.3400          4.5043          4.5043          4.5043          0.0000          0.0000          0.0000
   9.3600          4.4846          4.4846          4.4846          0.0000          0.0000          0.0000
   9.3800          4.4683          4.4683          4.4683          0.0000          0.0000          0.0000
   9.4000          4.4577          4.4577          4.4577          0.0000          0.0000          0.0000
   9.4200          4.4544          4.4544          4.4544          0.0000          0.0000          0.0000
   9.4400          4.4594          4.4594          4.4594          0.0000          0.0000          0.0000
   9.4600          4.4727          4.4727          4.4727          0.0000          0.0000          0.0000
   9.4800          4.4930          4.4930          4.4930          0.0000          0.0000          0.0000
   9.5000          4.5182          4.5182          4.5182          0.0000          0.0000          0.0000
   9.5200          4.5456          4.5456          4.5456          0.0000          0.0000          0.0000
   9.5400          4.5722          4.5722          4.5722          0.0000          0.0000          0.0000
   9.5600          4.5950          4.5950          4.5950          0.0000          0.0000          0.0000
   9.5800          4.6120          4.6120          4.6120          0.0000          0.0000          0.0000
   9.6000          4.6216          4.6216          4.6216          0.0000          0.0000          0.0000
   9.6200          4.6232          4.6232          4.6232          0.0000          0.0000          0.0000
   9.6400          4.6171          4.6171          4.6171          0.0000          0.0000          0.0000
   9.6600          4.6041          4.6041          4.6041          0.0000          0.0000          0.0000
   9.6800          4.5858          4.5858          4.5858          0.0000          0.0000          0.0000
   9.7000          4.5638          4.5638          4.5638          0.0000          0.0000          0.0000
   9.7200          4.5396          4.5396          4.5396          0.0000          0.0000          0.0000
   9.7400          4.5147          4.5147          4.5147          0.0000          0.0000          0.0000
   9.7600          4.4902          4.4902          4.4902          0.0000          0.0000          0.0000
   9.7800          4.4665          4.4665          4.4665          0.0000          0.0000          0.0000
   9.8000          4.4438          4.4438          4.4438          0.0000          0.0000          0.0000
   9.8200          4.4217          4.4217          4.4217          0.0000          0.0000          0.0000
   9.8400          4.3998          4.3998          4.3998          0.0000          0.0000          0.0000
   9.8600          4.3777          4.3777          4.3777          0.0000          0.0000          0.0000
   9.8800          4.3552          4.3552          4.3552          0.0000          0.0000          0.0000
   9.9000          4.3326          4.3326          4.3326          0.0000          0.0000          0.0000
   9.9200          4.3106          4.3106          4.3106          0.0000          0.0000          0.0000
   9.9400          4.2902          4.2902          4.2902          0.0000          0.0000          0.0000
   9.9600          4.2724          4.2724          4.2724          0.0000          0.0000          0.0000
   9.9800          4.2582          4.2582          4.2582          0.0000          0.0000          0.0000
  10.0000          4.2479          4.2479          4.2479          0.0000          0.0000          0.0000
  10.0200          4.2412          4.2412          4.2412          0.0000          0.0000          0.0000
  10.0400          4.2372          4.2372          4.2372          0.0000          0.0000          0.0000
  10.0600          4.2346          4.2346          4.2346          0.0000          0.0000          0.0000
  10.0800          4.2320          4.2320          4.2320          0.0000          0.0000          0.0000
  10.1000          4.2280          4.2280          4.2280          0.0000          0.0000          0.0000
  10.1200          4.2213          4.2213          4.2213          0.0000          0.0000          0.0000
  10.1400          4.2113          4.2113          4.2113          0.0000          0.0000          0.0000
  10.1600          4.1973          4.1973          4.1973          0.0000          0.0000          0.0000
  10.1800          4.1792          4.1792          4.1792          0.0000          0.0000          0.0000
  10.2000          4.1569          4.1569          4.1569          0.0000          0.0000          0.0000
  10.2200          4.1305          4.1305          4.1305          0.0000          0.0000          0.0000
  10.2400          4.1004          4.1004          4.1004          0.0000          0.0000          0.0000
  10.2600          4.0671          4.0671          4.0671          0.0000          0.0000          0.0000
  10.2800          4.0312          4.0312          4.0312          0.0000          0.0000          0.0000
  10.3000          3.9938          3.9938          3.9938          0.0000          0.0000          0.0000
  10.3200          3.9564          3.9564          3.9564          0.0000          0.0000          0.0000
  10.3400          3.9204          3.9204          3.9204          0.0000          0.0000          0.0000
  10.3600          3.8876          3.8876          3.8876          0.0000          0.0000          0.0000
  10.3800          3.8596          3.8596          3.8596          0.0000          0.0000          0.0000
  10.4000          3.8375          3.8375          3.8375          0.0000          0.0000          0.0000
  10.4200          3.8222          3.8222          3.8222          0.0000          0.0000          0.0000
  10.4400          3.8135          3.8135          3.8135          0.0000          0.0000          0.0000
  10.4600          3.8110          3.8110          3.8110          0.0000          0.0000          0.0000
  10.4800          3.8132          3.8132          3.8132          0.0000          0.0000          0.0000
  10.5000          3.8185          3.8185          3.8185          0.0000          0.0000          0.0000
  10.5200          3.8250          3.8250          3.8250          0.0000          0.0000          0.0000
  10.5400          3.8310          3.8310          3.8310          0.0000          0.0000          0.0000
  10.5600          3.8351          3.8351          3.8351          0.0000          0.0000          0.0000
  10.5800          3.8368          3.8368          3.8368          0.0000          0.0000          0.0000
  10.6000          3.8358          3.8358          3.8358          0.0000          0.0000          0.0000
  10.6200          3.8325          3.8325          3.8325          0.0000          0.0000          0.0000
  10.6400          3.8275          3.8275          3.8275          0.0000          0.0000          0.0000
  10.6600          3.8215          3.8215          3.8215          0.0000          0.0000          0.0000
  10.6800          3.8148          3.8148          3.8148          0.0000          0.0000          0.0000
  10.7000          3.8075          3.8075          3.8075          0.0000          0.0000          0.0000
  10.7200          3.7994          3.7994          3.7994          0.0000          0.0000          0.0000
  10.7400          3.7903          3.7903          3.7903          0.0000          0.0000          0.0000
  10.7600          3.7801          3.7801          3.7801          0.0000          0.0000          0.0000
  10.7800          3.7686          3.7686          3.7686          0.0000          0.0000          0.0000
  10.8000          3.7564          3.7564          3.7564          0.0000          0.0000          0.0000
  10.8200          3.7439          3.7439          3.7439          0.0000          0.0000          0.0000
  10.8400          3.7319          3.7319          3.7319          0.0000          0.0000          0.0000
  10.8600          3.7209          3.7209          3.7209          0.0000          0.0000          0.0000
  10.8800          3.7113          3.7113          3.7113          0.0000          0.0000          0.0000
  10.9000          3.7030          3.7030          3.7030          0.0000          0.0000          0.0000
  10.9200          3.6960          3.6960          3.6960          0.0000          0.0000          0.0000
  10.9400          3.6896          3.6896          3.6896          0.0000          0.0000          0.0000
  10.9600          3.6835          3.6835          3.6835          0.0000          0.0000          0.0000
  10.9800          3.6770          3.6770          3.6770          0.0000          0.0000          0.0000
  11.0000          3.6699          3.6699          3.6699          0.0000          0.0000          0.0000
  11.0200          3.6617          3.6617          3.6617          0.0000          0.0000          0.0000
  11.0400          3.6523          3.6523          3.6523          0.0000          0.0000          0.0000
  11.0600          3.6415          3.6415          3.6415          0.0000          0.0000          0.0000
  11.0800          3.6290          3.6290          3.6290          0.0000          0.0000          0.0000
  11.1000          3.6147          3.6147          3.6147          0.0000          0.0000          0.0000
  11.1200          3.5988          3.5988          3.5988          0.0000          0.0000          0.0000
  11.1400          3.5815          3.5815          3.5815          0.0000          0.0000          0.0000
  11.1600          3.5634          3.5634          3.5634          0.0000          0.0000          0.0000
  11.1800          3.5453          3.5453          3.5453          0.0000          0.0000          0.0000
  11.2000          3.5281          3.5281          3.5281          0.0000          0.0000          0.0000
  11.2200          3.5127          3.5127          3.5127          0.0000          0.0000          0.0000
  11.2400          3.4997          3.4997          3.4997          0.0000          0.0000          0.0000
  11.2600          3.4891          3.4891          3.4891          0.0000          0.0000          0.0000
  11.2800          3.4806          3.4806          3.4806          0.0000          0.0000          0.0000
  11.3000          3.4732          3.4732          3.4732          0.0000          0.0000          0.0000
  11.3200          3.4658          3.4658          3.4658          0.0000          0.0000          0.0000
  11.3400          3.4571          3.4571          3.4571          0.0000          0.0000          0.0000
  11.3600          3.4459          3.4459          3.4459          0.0000          0.0000          0.0000
  11.3800          3.4316          3.4316          3.4316          0.0000          0.0000          0.0000
  11.4000          3.4139          3.4139          3.4139          0.0000          0.0000          0.0000
  11.4200          3.3933          3.3933          3.3933          0.0000          0.0000          0.0000
  11.4400          3.3706          3.3706          3.3706          0.0000          0.0000          0.0000
  11.4600          3.3469          3.3469          3.3469          0.0000          0.0000          0.0000
  11.4800          3.3233          3.3233          3.3233          0.0000          0.0000          0.0000
  11.5000          3.3009          3.3009          3.3009          0.0000          0.0000          0.0000
  11.5200          3.2804          3.2804          3.2804          0.0000          0.0000          0.0000
  11.5400          3.2623          3.2623          3.2623          0.0000          0.0000          0.0000
  11.5600          3.2469          3.2469          3.2469          0.0000          0.0000          0.0000
  11.5800          3.2342          3.2342          3.2342          0.0000          0.0000          0.0000
  11.6000          3.2243          3.2243          3.2243          0.0000          0.0000          0.0000
  11.6200          3.2174          3.2174          3.2174          0.0000          0.0000          0.0000
  11.6400          3.2135          3.2135          3.2135          0.0000          0.0000          0.0000
  11.6600          3.2125          3.2125          3.2125          0.0000          0.0000          0.0000
  11.6800          3.2145          3.2145          3.2145          0.0000          0.0000          0.0000
  11.7000          3.2193          3.2193          3.2193          0.0000          0.0000          0.0000
  11.7200          3.2267          3.2267          3.2267          0.0000          0.0000          0.0000
  11.7400          3.2364          3.2364          3.2364          0.0000          0.0000          0.0000
  11.7600          3.2480          3.2480          3.2480          0.0000          0.0000          0.0000
  11.7800          3.2609          3.2609          3.2609          0.0000          0.0000          0.0000
  11.8000          3.2745          3.2745          3.2745          0.0000          0.0000          0.0000
  11.8200          3.2879          3.2879          3.2879          0.0000          0.0000          0.0000
  11.8400          3.3004          3.3004          3.3004          0.0000          0.0000          0.0000
  11.8600          3.3112          3.3112          3.3112          0.0000          0.0000          0.0000
  11.8800          3.3201          3.3201          3.3201          0.0000          0.0000          0.0000
  11.9000          3.3269          3.3269          3.3269          0.0000          0.0000          0.0000
  11.9200          3.3318          3.3318          3.3318          0.0000          0.0000          0.0000
  11.9400          3.3353          3.3353          3.3353          0.0000          0.0000          0.0000
  11.9600          3.3381          3.3381          3.3381          0.0000          0.0000          0.0000
  11.9800          3.3408          3.3408          3.3408          0.0000          0.0000          0.0000
  12.0000          3.3439          3.3439          3.3439          0.0000          0.0000          0.0000
  12.0200          3.3476          3.3476          3.3476          0.0000          0.0000          0.0000
  12.0400          3.3519          3.3519          3.3519          0.0000          0.0000          0.0000
  12.0600          3.3566          3.3566          3.3566          0.0000          0.0000          0.0000
  12.0800          3.3615          3.3615          3.3615          0.0000          0.0000          0.0000
  12.1000          3.3664          3.3664          3.3664          0.0000          0.0000          0.0000
  12.1200          3.3713          3.3713          3.3713          0.0000          0.0000          0.0000
  12.1400          3.3765          3.3765          3.3765          0.0000          0.0000          0.0000
  12.1600          3.3828          3.3828          3.3828          0.0000          0.0000          0.0000
  12.1800          3.3910          3.3910          3.3910          0.0000          0.0000          0.0000
  12.2000          3.4022          3.4022          3.4022          0.0000          0.0000          0.0000
  12.2200          3.4173          3.4173          3.4173          0.0000          0.0000          0.0000
  12.2400          3.4367          3.4367          3.4367          0.0000          0.0000          0.0000
  12.2600          3.4601          3.4601          3.4601          0.0000          0.0000          0.0000
  12.2800          3.4866          3.4866          3.4866          0.0000          0.0000          0.0000
  12.3000          3.5150          3.5150          3.5150          0.0000          0.0000          0.0000
  12.3200          3.5433          3.5433          3.5433          0.0000          0.0000          0.0000
  12.3400          3.5701          3.5701          3.5701          0.0000          0.0000          0.0000
  12.3600          3.5938          3.5938          3.5938          0.0000          0.0000          0.0000
  12.3800          3.6136          3.6136          3.6136          0.0000          0.0000          0.0000
  12.4000          3.6291          3.6291          3.6291          0.0000          0.0000          0.0000
  12.4200          3.6400          3.6400          3.6400          0.0000          0.0000          0.0000
  12.4400          3.6467          3.6467          3.6467          0.0000          0.0000          0.0000
  12.4600          3.6496          3.6496          3.6496          0.0000          0.0000          0.0000
  12.4800          3.6494          3.6494          3.6494          0.0000          0.0000          0.0000
  12.5000          3.6466          3.6466          3.6466          0.0000          0.0000          0.0000
  12.5200          3.6420          3.6420          3.6420          0.0000          0.0000          0.0000
  12.5400          3.6363          3.6363          3.6363          0.0000          0.0000          0.0000
  12.5600          3.6304          3.6304          3.6304          0.0000          0.0000          0.0000
  12.5800          3.6248          3.6248          3.6248          0.0000          0.0000          0.0000
  12.6000          3.6203          3.6203          3.6203          0.0000          0.0000          0.0000
  12.6200          3.6173          3.6173          3.6173          0.0000          0.0000          0.0000
  12.6400          3.6160          3.6160          3.6160          0.0000          0.0000          0.0000
  12.6600          3.6166          3.6166          3.6166          0.0000          0.0000          0.0000
  12.6800          3.6188          3.6188          3.6188          0.0000          0.0000          0.0000
  12.7000          3.6225          3.6225          3.6225          0.0000          0.0000          0.0000
  12.7200          3.6278          3.6278          3.6278          0.0000          0.0000          0.0000
  12.7400          3.6346          3.6346          3.6346          0.0000          0.0000          0.0000
  12.7600          3.6434          3.6434          3.6434          0.0000          0.0000          0.0000
  12.7800          3.6543          3.6543          3.6543          0.0000          0.0000          0.0000
  12.8000          3.6677          3.6677          3.6677          0.0000          0.0000          0.0000
  12.8200          3.6833          3.6833          3.6833          0.0000          0.0000          0.0000
  12.8400          3.7005          3.7005          3.7005          0.0000          0.0000          0.0000
  12.8600          3.7185          3.7185          3.7185          0.0000          0.0000          0.0000
  12.8800          3.7362          3.7362          3.7362          0.0000          0.0000          0.0000
  12.9000          3.7525          3.7525          3.7525          0.0000          0.0000          0.0000
  12.9200          3.7670          3.7670          3.7670          0.0000          0.0000          0.0000
  12.9400          3.7796          3.7796          3.7796          0.0000          0.0000          0.0000
  12.9600          3.7908          3.7908          3.7908          0.0000          0.0000          0.0000
  12.9800          3.8018          3.8018          3.8018          0.0000          0.0000          0.0000
  13.0000          3.8135          3.8135          3.8135          0.0000          0.0000          0.0000
  13.0200          3.8272          3.8272          3.8272          0.0000          0.0000          0.0000
  13.0400          3.8435          3.8435          3.8435          0.0000          0.0000          0.0000
  13.0600          3.8628          3.8628          3.8628          0.0000          0.0000          0.0000
  13.0800          3.8847          3.8847          3.8847          0.0000          0.0000          0.0000
  13.1000          3.9083          3.9083          3.9083          0.0000          0.0000          0.0000
  13.1200          3.9326          3.9326          3.9326          0.0000          0.0000          0.0000
  13.1400          3.9561          3.9561          3.9561          0.0000          0.0000          0.0000
  13.1600          3.9776          3.9776          3.9776          0.0000          0.0000          0.0000
  13.1800          3.9957          3.9957          3.9957          0.0000          0.0000          0.0000
  13.2000          4.0099          4.0099          4.0099          0.0000          0.0000          0.0000
  13.2200          4.0197          4.0197          4.0197          0.0000          0.0000          0.0000
  13.2400          4.0250          4.0250          4.0250          0.0000          0.0000          0.0000
  13.2600          4.0263          4.0263          4.0263          0.0000          0.0000          0.0000
  13.2800          4.0241          4.0241          4.0241          0.0000          0.0000          0.0000
  13.3000          4.0191          4.0191          4.0191          0.0000          0.0000          0.0000
  13.3200          4.0123          4.0123          4.0123          0.0000          0.0000          0.0000
  13.3400          4.0046          4.0046          4.0046          0.0000          0.0000          0.0000
  13.3600          3.9973          3.9973          3.9973          0.0000          0.0000          0.0000
  13.3800          3.9913          3.9913          3.9913          0.0000          0.0000          0.0000
  13.4000          3.9877          3.9877          3.9877          0.0000          0.0000          0.0000
  13.4200          3.9871          3.9871          3.9871          0.0000          0.0000          0.0000
  13.4400          3.9899          3.9899          3.9899          0.0000          0.0000          0.0000
  13.4600          3.9957          3.9957          3.9957          0.0000          0.0000          0.0000
  13.4800          4.0040          4.0040          4.0040          0.0000          0.0000          0.0000
  13.5000          4.0136          4.0136          4.0136          0.0000          0.0000          0.0000
  13.5200          4.0235          4.0235          4.0235          0.0000          0.0000          0.0000
  13.5400          4.0326          4.0326          4.0326          0.0000          0.0000          0.0000
  13.5600          4.0401          4.0401          4.0401          0.0000          0.0000          0.0000
  13.5800          4.0453          4.0453          4.0453          0.0000          0.0000          0.0000
  13.6000          4.0481          4.0481          4.0481          0.0000          0.0000          0.0000
  13.6200          4.0484          4.0484          4.0484          0.0000          0.0000          0.0000
  13.6400          4.0463          4.0463          4.0463          0.0000          0.0000          0.0000
  13.6600          4.0420          4.0420          4.0420          0.0000          0.0000          0.0000
  13.6800          4.0359          4.0359          4.0359          0.0000          0.0000          0.0000
  13.7000          4.0282          4.0282          4.0282          0.0000          0.0000          0.0000
  13.7200          4.0194          4.0194          4.0194          0.0000          0.0000          0.0000
  13.7400          4.0099          4.0099          4.0099          0.0000          0.0000          0.0000
  13.7600          4.0004          4.0004          4.0004          0.0000          0.0000          0.0000
  13.7800          3.9917          3.9917          3.9917          0.0000          0.0000          0.0000
  13.8000          3.9845          3.9845          3.9845          0.0000          0.0000          0.0000
  13.8200          3.9797          3.9797          3.9797          0.0000          0.0000          0.0000
  13.8400          3.9778          3.9778          3.9778          0.0000          0.0000          0.0000
  13.8600          3.9793          3.9793          3.9793          0.0000          0.0000          0.0000
  13.8800          3.9842          3.9842          3.9842          0.0000          0.0000          0.0000
  13.9000          3.9925          3.9925          3.9925          0.0000          0.0000          0.0000
  13.9200          4.0040          4.0040          4.0040          0.0000          0.0000          0.0000
  13.9400          4.0184          4.0184          4.0184          0.0000          0.0000          0.0000
  13.9600          4.0354          4.0354          4.0354          0.0000          0.0000          0.0000
  13.9800          4.0547          4.0547          4.0547          0.0000          0.0000          0.0000
  14.0000          4.0757          4.0757          4.0757          0.0000          0.0000          0.0000
  14.0200          4.0976          4.0976          4.0976          0.0000          0.0000          0.0000
  14.0400          4.1195          4.1195          4.1195          0.0000          0.0000          0.0000
  14.0600          4.1401          4.1401          4.1401          0.0000          0.0000          0.0000
  14.0800          4.1581          4.1581          4.1581          0.0000          0.0000          0.0000
  14.1000          4.1724          4.1724          4.1724          0.0000          0.0000          0.0000
  14.1200          4.1824          4.1824          4.1824          0.0000          0.0000          0.0000
  14.1400          4.1880          4.1880          4.1880          0.0000          0.0000          0.0000
  14.1600          4.1896          4.1896          4.1896          0.0000          0.0000          0.0000
  14.1800          4.1883          4.1883          4.1883          0.0000          0.0000          0.0000
  14.2000          4.1850          4.1850          4.1850          0.0000          0.0000          0.0000
  14.2200          4.1806          4.1806          4.1806          0.0000          0.0000          0.0000
  14.2400          4.1755          4.1755          4.1755          0.0000          0.0000          0.0000
  14.2600          4.1697          4.1697          4.1697          0.0000          0.0000          0.0000
  14.2800          4.1624          4.1624          4.1624          0.0000          0.0000          0.0000
  14.3000          4.1528          4.1528          4.1528          0.0000          0.0000          0.0000
  14.3200          4.1399          4.1399          4.1399          0.0000          0.0000          0.0000
  14.3400          4.1231          4.1231          4.1231          0.0000          0.0000          0.0000
  14.3600          4.1026          4.1026          4.1026          0.0000          0.0000          0.0000
  14.3800          4.0793          4.0793          4.0793          0.0000          0.0000          0.0000
  14.4000          4.0547          4.0547          4.0547          0.0000          0.0000          0.0000
  14.4200          4.0306          4.0306          4.0306          0.0000          0.0000          0.0000
  14.4400          4.0088          4.0088          4.0088          0.0000          0.0000          0.0000
  14.4600          3.9908          3.9908          3.9908          0.0000          0.0000          0.0000
  14.4800          3.9773          3.9773          3.9773          0.0000          0.0000          0.0000
  14.5000          3.9683          3.9683          3.9683          0.0000          0.0000          0.0000
  14.5200          3.9630          3.9630          3.9630          0.0000          0.0000          0.0000
  14.5400          3.9604          3.9604          3.9604          0.0000          0.0000          0.0000
  14.5600          3.9592          3.9592          3.9592          0.0000          0.0000          0.0000
  14.5800          3.9582          3.9582          3.9582          0.0000          0.0000          0.0000
  14.6000          3.9567          3.9567          3.9567          0.0000          0.0000          0.0000
  14.6200          3.9541          3.9541          3.9541          0.0000          0.0000          0.0000
  14.6400          3.9505          3.9505          3.9505          0.0000          0.0000          0.0000
  14.6600          3.9461          3.9461          3.9461          0.0000          0.0000          0.0000
  14.6800          3.9414          3.9414          3.9414          0.0000          0.0000          0.0000
  14.7000          3.9371          3.9371          3.9371          0.0000          0.0000          0.0000
  14.7200          3.9340          3.9340          3.9340          0.0000          0.0000          0.0000
  14.7400          3.9329          3.9329          3.9329          0.0000          0.0000          0.0000
  14.7600          3.9344          3.9344          3.9344          0.0000          0.0000          0.0000
  14.7800          3.9395          3.9395          3.9395          0.0000          0.0000          0.0000
  14.8000          3.9490          3.9490          3.9490          0.0000          0.0000          0.0000
  14.8200          3.9635          3.9635          3.9635          0.0000          0.0000          0.0000
  14.8400          3.9833          3.9833          3.9833          0.0000          0.0000          0.0000
  14.8600          4.0082          4.0082          4.0082          0.0000          0.0000          0.0000
  14.8800          4.0373          4.0373          4.0373          0.0000          0.0000          0.0000
  14.9000          4.0691          4.0691          4.0691          0.0000          0.0000          0.0000
  14.9200          4.1018          4.1018          4.1018          0.0000          0.0000          0.0000
  14.9400          4.1332          4.1332          4.1332          0.0000          0.0000          0.0000
  14.9600          4.1619          4.1619          4.1619          0.0000          0.0000          0.0000
  14.9800          4.1864          4.1864          4.1864          0.0000          0.0000          0.0000
  15.0000          4.2065          4.2065          4.2065          0.0000          0.0000          0.0000
  15.0200          4.2222          4.2222          4.2222          0.0000          0.0000          0.0000
  15.0400          4.2339          4.2339          4.2339          0.0000          0.0000          0.0000
  15.0600          4.2425          4.2425          4.2425          0.0000          0.0000          0.0000
  15.0800          4.2485          4.2485          4.2485          0.0000          0.0000          0.0000
  15.1000          4.2520          4.2520          4.2520          0.0000          0.0000          0.0000
  15.1200          4.2532          4.2532          4.2532          0.0000          0.0000          0.0000
  15.1400          4.2516          4.2516          4.2516          0.0000          0.0000          0.0000
  15.1600          4.2471          4.2471          4.2471          0.0000          0.0000          0.0000
  15.1800          4.2393          4.2393          4.2393          0.0000          0.0000          0.0000
  15.2000          4.2282          4.2282          4.2282          0.0000          0.0000          0.0000
  15.2200          4.2138          4.2138          4.2138          0.0000          0.0000          0.0000
  15.2400          4.1964          4.1964          4.1964          0.0000          0.0000          0.0000
  15.2600          4.1767          4.1767          4.1767          0.0000          0.0000          0.0000
  15.2800          4.1552          4.1552          4.1552          0.0000          0.0000          0.0000
  15.3000          4.1327          4.1327          4.1327          0.0000          0.0000          0.0000
  15.3200          4.1100          4.1100          4.1100          0.0000          0.0000          0.0000
  15.3400          4.0877          4.0877          4.0877          0.0000          0.0000          0.0000
  15.3600          4.0664          4.0664          4.0664          0.0000          0.0000          0.0000
  15.3800          4.0467          4.0467          4.0467          0.0000          0.0000          0.0000
  15.4000          4.0285          4.0285          4.0285          0.0000          0.0000          0.0000
  15.4200          4.0117          4.0117          4.0117          0.0000          0.0000          0.0000
  15.4400          3.9960          3.9960          3.9960          0.0000          0.0000          0.0000
  15.4600          3.9809          3.9809          3.9809          0.0000          0.0000          0.0000
  15.4800          3.9657          3.9657          3.9657          0.0000          0.0000          0.0000
  15.5000          3.9501          3.9501          3.9501          0.0000          0.0000          0.0000
  15.5200          3.9339          3.9339          3.9339          0.0000          0.0000          0.0000
  15.5400          3.9172          3.9172          3.9172          0.0000          0.0000          0.0000
  15.5600          3.9001          3.9001          3.9001          0.0000          0.0000          0.0000
  15.5800          3.8833          3.8833          3.8833          0.0000          0.0000          0.0000
  15.6000          3.8673          3.8673          3.8673          0.0000          0.0000          0.0000
  15.6200          3.8525          3.8525          3.8525          0.0000          0.0000          0.0000
  15.6400          3.8395          3.8395          3.8395          0.0000          0.0000          0.0000
  15.6600          3.8283          3.8283          3.8283          0.0000          0.0000          0.0000
  15.6800          3.8188          3.8188          3.8188          0.0000          0.0000          0.0000
  15.7000          3.8107          3.8107          3.8107          0.0000          0.0000          0.0000
  15.7200          3.8035          3.8035          3.8035          0.0000          0.0000          0.0000
  15.7400          3.7969          3.7969          3.7969          0.0000          0.0000          0.0000
  15.7600          3.7910          3.7910          3.7910          0.0000          0.0000          0.0000
  15.7800          3.7865          3.7865          3.7865          0.0000          0.0000          0.0000
  15.8000          3.7847          3.7847          3.7847          0.0000          0.0000          0.0000
  15.8200          3.7873          3.7873          3.7873          0.0000          0.0000          0.0000
  15.8400          3.7963          3.7963          3.7963          0.0000          0.0000          0.0000
  15.8600          3.8133          3.8133          3.8133          0.0000          0.0000          0.0000
  15.8800          3.8393          3.8393          3.8393          0.0000          0.0000          0.0000
  15.9000          3.8745          3.8745          3.8745          0.0000          0.0000          0.0000
  15.9200          3.9181          3.9181          3.9181          0.0000          0.0000          0.0000
  15.9400          3.9681          3.9681          3.9681          0.0000          0.0000          0.0000
  15.9600          4.0223          4.0223          4.0223          0.0000          0.0000          0.0000
  15.9800          4.0777          4.0777          4.0777          0.0000          0.0000          0.0000
  16.0000          4.1314          4.1314          4.1314          0.0000          0.0000          0.0000
  16.0200          4.1806          4.1806          4.1806          0.0000          0.0000          0.0000
  16.0400          4.2228          4.2228          4.2228          0.0000          0.0000          0.0000
  16.0600          4.2562          4.2562          4.2562          0.0000          0.0000          0.0000
  16.0800          4.2795          4.2795          4.2795          0.0000          0.0000          0.0000
  16.1000          4.2919          4.2919          4.2919          0.0000          0.0000          0.0000
  16.1200          4.2934          4.2934          4.2934          0.0000          0.0000          0.0000
  16.1400          4.2846          4.2846          4.2846          0.0000          0.0000          0.0000
  16.1600          4.2665          4.2665          4.2665          0.0000          0.0000          0.0000
  16.1800          4.2401          4.2401          4.2401          0.0000          0.0000          0.0000
  16.2000          4.2071          4.2071          4.2071          0.0000          0.0000          0.0000
  16.2200          4.1690          4.1690          4.1690          0.0000          0.0000          0.0000
  16.2400          4.1274          4.1274          4.1274          0.0000          0.0000          0.0000
  16.2600          4.0839          4.0839          4.0839          0.0000          0.0000          0.0000
  16.2800          4.0402          4.0402          4.0402          0.0000          0.0000          0.0000
  16.3000          3.9980          3.9980          3.9980          0.0000          0.0000          0.0000
  16.3200          3.9584          3.9584          3.9584          0.0000          0.0000          0.0000
  16.3400          3.9229          3.9229          3.9229          0.0000          0.0000          0.0000
  16.3600          3.8923          3.8923          3.8923          0.0000          0.0000          0.0000
  16.3800          3.8673          3.8673          3.8673          0.0000          0.0000          0.0000
  16.4000          3.8483          3.8483          3.8483          0.0000          0.0000          0.0000
  16.4200          3.8352          3.8352          3.8352          0.0000          0.0000          0.0000
  16.4400          3.8278          3.8278          3.8278          0.0000          0.0000          0.0000
  16.4600          3.8258          3.8258          3.8258          0.0000          0.0000          0.0000
  16.4800          3.8286          3.8286          3.8286          0.0000          0.0000          0.0000
  16.5000          3.8354          3.8354          3.8354          0.0000          0.0000          0.0000
  16.5200          3.8454          3.8454          3.8454          0.0000          0.0000          0.0000
  16.5400          3.8581          3.8581          3.8581          0.0000          0.0000          0.0000
  16.5600          3.8727          3.8727          3.8727          0.0000          0.0000          0.0000
  16.5800          3.8890          3.8890          3.8890          0.0000          0.0000          0.0000
  16.6000          3.9066          3.9066          3.9066          0.0000          0.0000          0.0000
  16.6200          3.9253          3.9253          3.9253          0.0000          0.0000          0.0000
  16.6400          3.9448          3.9448          3.9448          0.0000          0.0000          0.0000
  16.6600          3.9644          3.9644          3.9644          0.0000          0.0000          0.0000
  16.6800          3.9834          3.9834          3.9834          0.0000          0.0000          0.0000
  16.7000          4.0006          4.0006          4.0006          0.0000          0.0000          0.0000
  16.7200          4.0149          4.0149          4.0149          0.0000          0.0000          0.0000
  16.7400          4.0255          4.0255          4.0255          0.0000          0.0000          0.0000
  16.7600          4.0314          4.0314          4.0314          0.0000          0.0000          0.0000
  16.7800          4.0323          4.0323          4.0323          0.0000          0.0000          0.0000
  16.8000          4.0285          4.0285          4.0285          0.0000          0.0000          0.0000
  16.8200          4.0207          4.0207          4.0207          0.0000          0.0000          0.0000
  16.8400          4.0100          4.0100          4.0100          0.0000          0.0000          0.0000
  16.8600          3.9980          3.9980          3.9980          0.0000          0.0000          0.0000
  16.8800          3.9865          3.9865          3.9865          0.0000          0.0000          0.0000
  16.9000          3.9772          3.9772          3.9772          0.0000          0.0000          0.0000
  16.9200          3.9717          3.9717          3.9717          0.0000          0.0000          0.0000
  16.9400          3.9709          3.9709          3.9709          0.0000          0.0000          0.0000
  16.9600          3.9754          3.9754          3.9754          0.0000          0.0000          0.0000
  16.9800          3.9848          3.9848          3.9848          0.0000          0.0000          0.0000
  17.0000          3.9985          3.9985          3.9985          0.0000          0.0000          0.0000
  17.0200          4.0150          4.0150          4.0150          0.0000          0.0000          0.0000
  17.0400          4.0329          4.0329          4.0329          0.0000          0.0000          0.0000
  17.0600          4.0510          4.0510          4.0510          0.0000          0.0000          0.0000
  17.0800          4.0682          4.0682          4.0682          0.0000          0.0000          0.0000
  17.1000          4.0839          4.0839          4.0839          0.0000          0.0000          0.0000
  17.1200          4.0983          4.0983          4.0983          0.0000          0.0000          0.0000
  17.1400          4.1116          4.1116          4.1116          0.0000          0.0000          0.0000
  17.1600          4.1246          4.1246          4.1246          0.0000          0.0000          0.0000
  17.1800          4.1380          4.1380          4.1380          0.0000          0.0000          0.0000
  17.2000          4.1523          4.1523          4.1523          0.0000          0.0000          0.0000
  17.2200          4.1676          4.1676          4.1676          0.0000          0.0000          0.0000
  17.2400          4.1833          4.1833          4.1833          0.0000          0.0000          0.0000
  17.2600          4.1986          4.1986          4.1986          0.0000          0.0000          0.0000
  17.2800          4.2121          4.2121          4.2121          0.0000          0.0000          0.0000
  17.3000          4.2224          4.2224          4.2224          0.0000          0.0000          0.0000
  17.3200          4.2278          4.2278          4.2278          0.0000          0.0000          0.0000
  17.3400          4.2271          4.2271          4.2271          0.0000          0.0000          0.0000
  17.3600          4.2197          4.2197          4.2197          0.0000          0.0000          0.0000
  17.3800          4.2050          4.2050          4.2050          0.0000          0.0000          0.0000
  17.4000          4.1837          4.1837          4.1837          0.0000          0.0000          0.0000
  17.4200          4.1564          4.1564          4.1564          0.0000          0.0000          0.0000
  17.4400          4.1248          4.1248          4.1248          0.0000          0.0000          0.0000
  17.4600          4.0905          4.0905          4.0905          0.0000          0.0000          0.0000
  17.4800          4.0555          4.0555          4.0555          0.0000          0.0000          0.0000
  17.5000          4.0215          4.0215          4.0215          0.0000          0.0000          0.0000
  17.5200          3.9899          3.9899          3.9899          0.0000          0.0000          0.0000
  17.5400          3.9619          3.9619          3.9619          0.0000          0.0000          0.0000
  17.5600          3.9380          3.9380          3.9380          0.0000          0.0000          0.0000
  17.5800          3.9180          3.9180          3.9180          0.0000          0.0000          0.0000
  17.6000          3.9016          3.9016          3.9016          0.0000          0.0000          0.0000
  17.6200          3.8880          3.8880          3.8880          0.0000          0.0000          0.0000
  17.6400          3.8766          3.8766          3.8766          0.0000          0.0000          0.0000
  17.6600          3.8667          3.8667          3.8667          0.0000          0.0000          0.0000
  17.6800          3.8581          3.8581          3.8581          0.0000          0.0000          0.0000
  17.7000          3.8509          3.8509          3.8509          0.0000          0.0000          0.0000
  17.7200          3.8457          3.8457          3.8457          0.0000          0.0000          0.0000
  17.7400          3.8431          3.8431          3.8431          0.0000          0.0000          0.0000
  17.7600          3.8439          3.8439          3.8439          0.0000          0.0000          0.0000
  17.7800          3.8488          3.8488          3.8488          0.0000          0.0000          0.0000
  17.8000          3.8581          3.8581          3.8581          0.0000          0.0000          0.0000
  17.8200          3.8720          3.8720          3.8720          0.0000          0.0000          0.0000
  17.8400          3.8903          3.8903          3.8903          0.0000          0.0000          0.0000
  17.8600          3.9125          3.9125          3.9125          0.0000          0.0000          0.0000
  17.8800          3.9381          3.9381          3.9381          0.0000          0.0000          0.0000
  17.9000          3.9659          3.9659          3.9659          0.0000          0.0000          0.0000
  17.9200          3.9948          3.9948          3.9948          0.0000          0.0000          0.0000
  17.9400          4.0234          4.0234          4.0234          0.0000          0.0000          0.0000
  17.9600          4.0501          4.0501          4.0501          0.0000          0.0000          0.0000
  17.9800          4.0730          4.0730          4.0730          0.0000          0.0000          0.0000
  18.0000          4.0905          4.0905          4.0905          0.0000          0.0000          0.0000
  18.0200          4.1012          4.1012          4.1012          0.0000          0.0000          0.0000
  18.0400          4.1040          4.1040          4.1040          0.0000          0.0000          0.0000
  18.0600          4.0984          4.0984          4.0984          0.0000          0.0000          0.0000
  18.0800          4.0847          4.0847          4.0847          0.0000          0.0000          0.0000
  18.1000          4.0639          4.0639          4.0639          0.0000          0.0000          0.0000
  18.1200          4.0374          4.0374          4.0374          0.0000          0.0000          0.0000
  18.1400          4.0073          4.0073          4.0073          0.0000          0.0000          0.0000
  18.1600          3.9757          3.9757          3.9757          0.0000          0.0000          0.0000
  18.1800          3.9446          3.9446          3.9446          0.0000          0.0000          0.0000
  18.2000          3.9156          3.9156          3.9156          0.0000          0.0000          0.0000
  18.2200          3.8899          3.8899          3.8899          0.0000          0.0000          0.0000
  18.2400          3.8679          3.8679          3.8679          0.0000          0.0000          0.0000
  18.2600          3.8493          3.8493          3.8493          0.0000          0.0000          0.0000
  18.2800          3.8336          3.8336          3.8336          0.0000          0.0000          0.0000
  18.3000          3.8198          3.8198          3.8198          0.0000          0.0000          0.0000
  18.3200          3.8072          3.8072          3.8072          0.0000          0.0000          0.0000
  18.3400          3.7947          3.7947          3.7947          0.0000          0.0000          0.0000
  18.3600          3.7819          3.7819          3.7819          0.0000          0.0000          0.0000
  18.3800          3.7683          3.7683          3.7683          0.0000          0.0000          0.0000
  18.4000          3.7538          3.7538          3.7538          0.0000          0.0000          0.0000
  18.4200          3.7385          3.7385          3.7385          0.0000          0.0000          0.0000
  18.4400          3.7227          3.7227          3.7227          0.0000          0.0000          0.0000
  18.4600          3.7067          3.7067          3.7067          0.0000          0.0000          0.0000
  18.4800          3.6910          3.6910          3.6910          0.0000          0.0000          0.0000
  18.5000          3.6761          3.6761          3.6761          0.0000          0.0000          0.0000
  18.5200          3.6624          3.6624          3.6624          0.0000          0.0000          0.0000
  18.5400          3.6502          3.6502          3.6502          0.0000          0.0000          0.0000
  18.5600          3.6395          3.6395          3.6395          0.0000          0.0000          0.0000
  18.5800          3.6304          3.6304          3.6304          0.0000          0.0000          0.0000
  18.6000          3.6225          3.6225          3.6225          0.0000          0.0000          0.0000
  18.6200          3.6157          3.6157          3.6157          0.0000          0.0000          0.0000
  18.6400          3.6099          3.6099          3.6099          0.0000          0.0000          0.0000
  18.6600          3.6048          3.6048          3.6048          0.0000          0.0000          0.0000
  18.6800          3.6003          3.6003          3.6003          0.0000          0.0000          0.0000
  18.7000          3.5965          3.5965          3.5965          0.0000          0.0000          0.0000
  18.7200          3.5931          3.5931          3.5931          0.0000          0.0000          0.0000
  18.7400          3.5900          3.5900          3.5900          0.0000          0.0000          0.0000
  18.7600          3.5870          3.5870          3.5870          0.0000          0.0000          0.0000
  18.7800          3.5834          3.5834          3.5834          0.0000          0.0000          0.0000
  18.8000          3.5788          3.5788          3.5788          0.0000          0.0000          0.0000
  18.8200          3.5725          3.5725          3.5725          0.0000          0.0000          0.0000
  18.8400          3.5640          3.5640          3.5640          0.0000          0.0000          0.0000
  18.8600          3.5530          3.5530          3.5530          0.0000          0.0000          0.0000
  18.8800          3.5393          3.5393          3.5393          0.0000          0.0000          0.0000
  18.9000          3.5235          3.5235          3.5235          0.0000          0.0000          0.0000
  18.9200          3.5064          3.5064          3.5064          0.0000          0.0000          0.0000
  18.9400          3.4893          3.4893          3.4893          0.0000          0.0000          0.0000
  18.9600          3.4738          3.4738          3.4738          0.0000          0.0000          0.0000
  18.9800          3.4612          3.4612          3.4612          0.0000          0.0000          0.0000
  19.0000          3.4527          3.4527          3.4527          0.0000          0.0000          0.0000
  19.0200          3.4489          3.4489          3.4489          0.0000          0.0000          0.0000
  19.0400          3.4499          3.4499          3.4499          0.0000          0.0000          0.0000
  19.0600          3.4554          3.4554          3.4554          0.0000          0.0000          0.0000
  19.0800          3.4651          3.4651          3.4651          0.0000          0.0000          0.0000
  19.1000          3.4786          3.4786          3.4786          0.0000          0.0000          0.0000
  19.1200          3.4957          3.4957          3.4957          0.0000          0.0000          0.0000
  19.1400          3.5167          3.5167          3.5167          0.0000          0.0000          0.0000
  19.1600          3.5420          3.5420          3.5420          0.0000          0.0000          0.0000
  19.1800          3.5717          3.5717          3.5717          0.0000          0.0000          0.0000
  19.2000          3.6060          3.6060          3.6060          0.0000          0.0000          0.0000
  19.2200          3.6447          3.6447          3.6447          0.0000          0.0000          0.0000
  19.2400          3.6874          3.6874          3.6874          0.0000          0.0000          0.0000
  19.2600          3.7338          3.7338          3.7338          0.0000          0.0000          0.0000
  19.2800          3.7836          3.7836          3.7836          0.0000          0.0000          0.0000
  19.3000          3.8374          3.8374          3.8374          0.0000          0.0000          0.0000
  19.3200          3.8960          3.8960          3.8960          0.0000          0.0000          0.0000
  19.3400          3.9608          3.9608          3.9608          0.0000          0.0000          0.0000
  19.3600          4.0331          4.0331          4.0331          0.0000          0.0000          0.0000
  19.3800          4.1141          4.1141          4.1141          0.0000          0.0000          0.0000
  19.4000          4.2045          4.2045          4.2045          0.0000          0.0000          0.0000
  19.4200          4.3041          4.3041          4.3041          0.0000          0.0000          0.0000
  19.4400          4.4121          4.4121          4.4121          0.0000          0.0000          0.0000
  19.4600          4.5271          4.5271          4.5271          0.0000          0.0000          0.0000
  19.4800          4.6475          4.6475          4.6475          0.0000          0.0000          0.0000
  19.5000          4.7722          4.7722          4.7722          0.0000          0.0000          0.0000
  19.5200          4.9002          4.9002          4.9002          0.0000          0.0000          0.0000
  19.5400          5.0311          5.0311          5.0311          0.0000          0.0000          0.0000
  19.5600          5.1649          5.1649          5.1649          0.0000          0.0000          0.0000
  19.5800          5.3016          5.3016          5.3016          0.0000          0.0000          0.0000
  19.6000          5.4410          5.4410          5.4410          0.0000          0.0000          0.0000
  19.6200          5.5823          5.5823          5.5823          0.0000          0.0000          0.0000
  19.6400          5.7243          5.7243          5.7243          0.0000          0.0000          0.0000
  19.6600          5.8653          5.8653          5.8653          0.0000          0.0000          0.0000
  19.6800          6.0037          6.0037          6.0037          0.0000          0.0000          0.0000
  19.7000          6.1382          6.1382          6.1382          0.0000          0.0000          0.0000
  19.7200          6.2680          6.2680          6.2680          0.0000          0.0000          0.0000
  19.7400          6.3930          6.3930          6.3930          0.0000          0.0000          0.0000
  19.7600          6.5139          6.5139          6.5139          0.0000          0.0000          0.0000
  19.7800          6.6318          6.6318          6.6318          0.0000          0.0000          0.0000
  19.8000          6.7481          6.7481          6.7481          0.0000          0.0000          0.0000
  19.8200          6.8643          6.8643          6.8643          0.0000          0.0000          0.0000
  19.8400          6.9814          6.9814          6.9814          0.0000          0.0000          0.0000
  19.8600          7.1004          7.1004          7.1004          0.0000          0.0000          0.0000
  19.8800          7.2215          7.2215          7.2215          0.0000          0.0000          0.0000
  19.9000          7.3444          7.3444          7.3444          0.0000          0.0000          0.0000
  19.9200          7.4675          7.4675          7.4675          0.0000          0.0000          0.0000
  19.9400          7.5877          7.5877          7.5877          0.0000          0.0000          0.0000
  19.9600          7.6989          7.6989          7.6989          0.0000          0.0000          0.0000
  19.9800          7.7906          7.7906          7.7906          0.0000          0.0000          0.0000
  20.0000          7.8486          7.8486          7.8486          0.0000          0.0000          0.0000
