### real part of conductivity (in units of 10^15 sec^-1)
   0.0000          0.0000          0.0000          0.0000          0.0000          0.0000          0.0000
   0.0200          4.8636          4.8636          4.8636          0.0000          0.0000          0.0000
   0.0400          4.8621          4.8621          4.8621          0.0000          0.0000          0.0000
   0.0600          4.8597          4.8597          4.8597          0.0000          0.0000          0.0000
   0.0800          4.8564          4.8564          4.8564          0.0000          0.0000          0.0000
   0.1000          4.8521          4.8521          4.8521          0.0000          0.0000          0.0000
   0.1200          4.8468          4.8468          4.8468          0.0000          0.0000          0.0000
   0.1400          4.8406          4.8406          4.8406          0.0000          0.0000          0.0000
   0.1600          4.8335          4.8335          4.8335          0.0000          0.0000          0.0000
   0.1800          4.8254          4.8254          4.8254          0.0000          0.0000          0.0000
   0.2000          4.8164          4.8164          4.8164          0.0000          0.0000          0.0000
   0.2200          4.8065          4.8065          4.8065          0.0000          0.0000          0.0000
   0.2400          4.7958          4.7958          4.7958          0.0000          0.0000          0.0000
   0.2600          4.7841          4.7841          4.7841          0.0000          0.0000          0.0000
   0.2800          4.7716          4.7716          4.7716          0.0000          0.0000          0.0000
   0.3000          4.7582          4.7582          4.7582          0.0000          0.0000          0.0000
   0.3200          4.7440          4.7440          4.7440          0.0000          0.0000          0.0000
   0.3400          4.7290          4.7290          4.7290          0.0000          0.0000          0.0000
   0.3600          4.7132          4.7132          4.7132          0.0000          0.0000          0.0000
   0.3800          4.6966          4.6966          4.6966          0.0000          0.0000          0.0000
   0.4000          4.6792          4.6792          4.6792          0.0000          0.0000          0.0000
   0.4200          4.6611          4.6611          4.6611          0.0000          0.0000          0.0000
   0.4400          4.6422          4.6422          4.6422          0.0000          0.0000          0.0000
   0.4600          4.6226          4.6226          4.6226          0.0000          0.0000          0.0000
   0.4800          4.6024          4.6024          4.6024          0.0000          0.0000          0.0000
   0.5000          4.5815          4.5815          4.5815          0.0000          0.0000          0.0000
   0.5200          4.5599          4.5599          4.5599          0.0000          0.0000          0.0000
   0.5400          4.5377          4.5377          4.5377          0.0000          0.0000          0.0000
   0.5600          4.5150          4.5150          4.5150          0.0000          0.0000          0.0000
   0.5800          4.4916          4.4916          4.4916          0.0000          0.0000          0.0000
   0.6000          4.4677          4.4677          4.4677          0.0000          0.0000          0.0000
   0.6200          4.4433          4.4433          4.4433          0.0000          0.0000          0.0000
   0.6400          4.4183          4.4183          4.4183          0.0000          0.0000          0.0000
   0.6600          4.3929          4.3929          4.3929          0.0000          0.0000          0.0000
   0.6800          4.3670          4.3670          4.3670          0.0000          0.0000          0.0000
   0.7000          4.3407          4.3407          4.3407          0.0000          0.0000          0.0000
   0.7200          4.3140          4.3140          4.3140          0.0000          0.0000          0.0000
   0.7400          4.2869          4.2869          4.2869          0.0000          0.0000          0.0000
   0.7600          4.2594          4.2594          4.2594          0.0000          0.0000          0.0000
   0.7800          4.2316          4.2316          4.2316          0.0000          0.0000          0.0000
   0.8000          4.2035          4.2035          4.2035          0.0000          0.0000          0.0000
   0.8200          4.1750          4.1750          4.1750          0.0000          0.0000          0.0000
   0.8400          4.1463          4.1463          4.1463          0.0000          0.0000          0.0000
   0.8600          4.1174          4.1174          4.1174          0.0000          0.0000          0.0000
   0.8800          4.0882          4.0882          4.0882          0.0000          0.0000          0.0000
   0.9000          4.0588          4.0588          4.0588          0.0000          0.0000          0.0000
   0.9200          4.0292          4.0292          4.0292          0.0000          0.0000          0.0000
   0.9400          3.9995          3.9995          3.9995          0.0000          0.0000          0.0000
   0.9600          3.9696          3.9696          3.9696          0.0000          0.0000          0.0000
   0.9800          3.9397          3.9397          3.9397          0.0000          0.0000          0.0000
   1.0000          3.9096          3.9096          3.9096          0.0000          0.0000          0.0000
   1.0200          3.8794          3.8794          3.8794          0.0000          0.0000          0.0000
   1.0400          3.8492          3.8492          3.8492          0.0000          0.0000          0.0000
   1.0600          3.8190          3.8190          3.8190          0.0000          0.0000          0.0000
   1.0800          3.7888          3.7888          3.7888          0.0000          0.0000          0.0000
   1.1000          3.7585          3.7585          3.7585          0.0000          0.0000          0.0000
   1.1200          3.7283          3.7283          3.7283          0.0000          0.0000          0.0000
   1.1400          3.6982          3.6982          3.6982          0.0000          0.0000          0.0000
   1.1600          3.6681          3.6681          3.6681          0.0000          0.0000          0.0000
   1.1800          3.6381          3.6381          3.6381          0.0000          0.0000          0.0000
   1.2000          3.6082          3.6082          3.6082          0.0000          0.0000          0.0000
   1.2200          3.5785          3.5785          3.5785          0.0000          0.0000          0.0000
   1.2400          3.5489          3.5489          3.5489          0.0000          0.0000          0.0000
   1.2600          3.5195          3.5195          3.5195          0.0000          0.0000          0.0000
   1.2800          3.4903          3.4903          3.4903          0.0000          0.0000          0.0000
   1.3000          3.4614          3.4614          3.4614          0.0000          0.0000          0.0000
   1.3200          3.4326          3.4326          3.4326          0.0000          0.0000          0.0000
   1.3400          3.4042          3.4042          3.4042          0.0000          0.0000          0.0000
   1.3600          3.3761          3.3761          3.3761          0.0000          0.0000          0.0000
   1.3800          3.3483          3.3483          3.3483          0.0000          0.0000          0.0000
   1.4000          3.3210          3.3210          3.3210          0.0000          0.0000          0.0000
   1.4200          3.2940          3.2940          3.2940          0.0000          0.0000          0.0000
   1.4400          3.2675          3.2675          3.2675          0.0000          0.0000          0.0000
   1.4600          3.2416          3.2416          3.2416          0.0000          0.0000          0.0000
   1.4800          3.2162          3.2162          3.2162          0.0000          0.0000          0.0000
   1.5000          3.1915          3.1915          3.1915          0.0000          0.0000          0.0000
   1.5200          3.1675          3.1675          3.1675          0.0000          0.0000          0.0000
   1.5400          3.1443          3.1443          3.1443          0.0000          0.0000          0.0000
   1.5600          3.1221          3.1221          3.1221          0.0000          0.0000          0.0000
   1.5800          3.1010          3.1010          3.1010          0.0000          0.0000          0.0000
   1.6000          3.0812          3.0812          3.0812          0.0000          0.0000          0.0000
   1.6200          3.0628          3.0628          3.0628          0.0000          0.0000          0.0000
   1.6400          3.0460          3.0460          3.0460          0.0000          0.0000          0.0000
   1.6600          3.0311          3.0311          3.0311          0.0000          0.0000          0.0000
   1.6800          3.0184          3.0184          3.0184          0.0000          0.0000          0.0000
   1.7000          3.0083          3.0083          3.0083          0.0000          0.0000          0.0000
   1.7200          3.0011          3.0011          3.0011          0.0000          0.0000          0.0000
   1.7400          2.9975          2.9975          2.9975          0.0000          0.0000          0.0000
   1.7600          2.9979          2.9979          2.9979          0.0000          0.0000          0.0000
   1.7800          3.0030          3.0030          3.0030          0.0000          0.0000          0.0000
   1.8000          3.0132          3.0132          3.0132          0.0000          0.0000          0.0000
   1.8200          3.0289          3.0289          3.0289          0.0000          0.0000          0.0000
   1.8400          3.0502          3.0502          3.0502          0.0000          0.0000          0.0000
   1.8600          3.0771          3.0771          3.0771          0.0000          0.0000          0.0000
   1.8800          3.1087          3.1087          3.1087          0.0000          0.0000          0.0000
   1.9000          3.1441          3.1441          3.1441          0.0000          0.0000          0.0000
   1.9200          3.1820          3.1820          3.1820          0.0000          0.0000          0.0000
   1.9400          3.2207          3.2207          3.2207          0.0000          0.0000          0.0000
   1.9600          3.2591          3.2591          3.2591          0.0000          0.0000          0.0000
   1.9800          3.2962          3.2962          3.2962          0.0000          0.0000          0.0000
   2.0000          3.3317          3.3317          3.3317          0.0000          0.0000          0.0000
   2.0200          3.3662          3.3662          3.3662          0.0000          0.0000          0.0000
   2.0400          3.4006          3.4006          3.4006          0.0000          0.0000          0.0000
   2.0600          3.4364          3.4364          3.4364          0.0000          0.0000          0.0000
   2.0800          3.4749          3.4749          3.4749          0.0000          0.0000          0.0000
   2.1000          3.5173          3.5173          3.5173          0.0000          0.0000          0.0000
   2.1200          3.5641          3.5641          3.5641          0.0000          0.0000          0.0000
   2.1400          3.6155          3.6155          3.6155          0.0000          0.0000          0.0000
   2.1600          3.6709          3.6709          3.6709          0.0000          0.0000          0.0000
   2.1800          3.7293          3.7293          3.7293          0.0000          0.0000          0.0000
   2.2000          3.7895          3.7895          3.7895          0.0000          0.0000          0.0000
   2.2200          3.8500          3.8500          3.8500          0.0000          0.0000          0.0000
   2.2400          3.9093          3.9093          3.9093          0.0000          0.0000          0.0000
   2.2600          3.9659          3.9659          3.9659          0.0000          0.0000          0.0000
   2.2800          4.0183          4.0183          4.0183          0.0000          0.0000          0.0000
   2.3000          4.0651          4.0651          4.0651          0.0000          0.0000          0.0000
   2.3200          4.1050          4.1050          4.1050          0.0000          0.0000          0.0000
   2.3400          4.1368          4.1368          4.1368          0.0000          0.0000          0.0000
   2.3600          4.1596          4.1596          4.1596          0.0000          0.0000          0.0000
   2.3800          4.1727          4.1727          4.1727          0.0000          0.0000          0.0000
   2.4000          4.1761          4.1761          4.1761          0.0000          0.0000          0.0000
   2.4200          4.1704          4.1704          4.1704          0.0000          0.0000          0.0000
   2.4400          4.1566          4.1566          4.1566          0.0000          0.0000          0.0000
   2.4600          4.1362          4.1362          4.1362          0.0000          0.0000          0.0000
   2.4800          4.1114          4.1114          4.1114          0.0000          0.0000          0.0000
   2.5000          4.0841          4.0841          4.0841          0.0000          0.0000          0.0000
   2.5200          4.0565          4.0565          4.0565          0.0000          0.0000          0.0000
   2.5400          4.0306          4.0306          4.0306          0.0000          0.0000          0.0000
   2.5600          4.0081          4.0081          4.0081          0.0000          0.0000          0.0000
   2.5800          3.9904          3.9904          3.9904          0.0000          0.0000          0.0000
   2.6000          3.9786          3.9786          3.9786          0.0000          0.0000          0.0000
   2.6200          3.9737          3.9737          3.9737          0.0000          0.0000          0.0000
   2.6400          3.9758          3.9758          3.9758          0.0000          0.0000          0.0000
   2.6600          3.9849          3.9849          3.9849          0.0000          0.0000          0.0000
   2.6800          4.0005          4.0005          4.0005          0.0000          0.0000          0.0000
   2.7000          4.0215          4.0215          4.0215          0.0000          0.0000          0.0000
   2.7200          4.0465          4.0465          4.0465          0.0000          0.0000          0.0000
   2.7400          4.0739          4.0739          4.0739          0.0000          0.0000          0.0000
   2.7600          4.1018          4.1018          4.1018          0.0000          0.0000          0.0000
   2.7800          4.1281          4.1281          4.1281          0.0000          0.0000          0.0000
   2.8000          4.1511          4.1511          4.1511          0.0000          0.0000          0.0000
   2.8200          4.1687          4.1687          4.1687          0.0000          0.0000          0.0000
   2.8400          4.1795          4.1795          4.1795          0.0000          0.0000          0.0000
   2.8600          4.1822          4.1822          4.1822          0.0000          0.0000          0.0000
   2.8800          4.1760          4.1760          4.1760          0.0000          0.0000          0.0000
   2.9000          4.1609          4.1609          4.1609          0.0000          0.0000          0.0000
   2.9200          4.1379          4.1379          4.1379          0.0000          0.0000          0.0000
   2.9400          4.1087          4.1087          4.1087          0.0000          0.0000          0.0000
   2.9600          4.0758          4.0758          4.0758          0.0000          0.0000          0.0000
   2.9800          4.0423          4.0423          4.0423          0.0000          0.0000          0.0000
   3.0000          4.0110          4.0110          4.0110          0.0000          0.0000          0.0000
   3.0200          3.9847          3.9847          3.9847          0.0000          0.0000          0.0000
   3.0400          3.9654          3.9654          3.9654          0.0000          0.0000          0.0000
   3.0600          3.9544          3.9544          3.9544          0.0000          0.0000          0.0000
   3.0800          3.9522          3.9522          3.9522          0.0000          0.0000          0.0000
   3.1000          3.9587          3.9587          3.9587          0.0000          0.0000          0.0000
   3.1200          3.9734          3.9734          3.9734          0.0000          0.0000          0.0000
   3.1400          3.9959          3.9959          3.9959          0.0000          0.0000          0.0000
   3.1600          4.0257          4.0257          4.0257          0.0000          0.0000          0.0000
   3.1800          4.0625          4.0625          4.0625          0.0000          0.0000          0.0000
   3.2000          4.1061          4.1061          4.1061          0.0000          0.0000          0.0000
   3.2200          4.1555          4.1555          4.1555          0.0000          0.0000          0.0000
   3.2400          4.2092          4.2092          4.2092          0.0000          0.0000          0.0000
   3.2600          4.2642          4.2642          4.2642          0.0000          0.0000          0.0000
   3.2800          4.3165          4.3165          4.3165          0.0000          0.0000          0.0000
   3.3000          4.3616          4.3616          4.3616          0.0000          0.0000          0.0000
   3.3200          4.3951          4.3951          4.3951          0.0000          0.0000          0.0000
   3.3400          4.4142          4.4142          4.4142          0.0000          0.0000          0.0000
   3.3600          4.4180          4.4180          4.4180          0.0000          0.0000          0.0000
   3.3800          4.4082          4.4082          4.4082          0.0000          0.0000          0.0000
   3.4000          4.3885          4.3885          4.3885          0.0000          0.0000          0.0000
   3.4200          4.3637          4.3637          4.3637          0.0000          0.0000          0.0000
   3.4400          4.3384          4.3384          4.3384          0.0000          0.0000          0.0000
   3.4600          4.3161          4.3161          4.3161          0.0000          0.0000          0.0000
   3.4800          4.2981          4.2981          4.2981          0.0000          0.0000          0.0000
   3.5000          4.2834          4.2834          4.2834          0.0000          0.0000          0.0000
   3.5200          4.2695          4.2695          4.2695          0.0000          0.0000          0.0000
   3.5400          4.2531          4.2531          4.2531          0.0000          0.0000          0.0000
   3.5600          4.2309          4.2309          4.2309          0.0000          0.0000          0.0000
   3.5800          4.2010          4.2010          4.2010          0.0000          0.0000          0.0000
   3.6000          4.1627          4.1627          4.1627          0.0000          0.0000          0.0000
   3.6200          4.1174          4.1174          4.1174          0.0000          0.0000          0.0000
   3.6400          4.0677          4.0677          4.0677          0.0000          0.0000          0.0000
   3.6600          4.0171          4.0171          4.0171          0.0000          0.0000          0.0000
   3.6800          3.9697          3.9697          3.9697          0.0000          0.0000          0.0000
   3.7000          3.9289          3.9289          3.9289          0.0000          0.0000          0.0000
   3.7200          3.8978          3.8978          3.8978          0.0000          0.0000          0.0000
   3.7400          3.8782          3.8782          3.8782          0.0000          0.0000          0.0000
   3.7600          3.8709          3.8709          3.8709          0.0000          0.0000          0.0000
   3.7800          3.8760          3.8760          3.8760          0.0000          0.0000          0.0000
   3.8000          3.8926          3.8926          3.8926          0.0000          0.0000          0.0000
   3.8200          3.9192          3.9192          3.9192          0.0000          0.0000          0.0000
   3.8400          3.9534          3.9534          3.9534          0.0000          0.0000          0.0000
   3.8600          3.9925          3.9925          3.9925          0.0000          0.0000          0.0000
   3.8800          4.0330          4.0330          4.0330          0.0000          0.0000          0.0000
   3.9000          4.0710          4.0710          4.0710          0.0000          0.0000          0.0000
   3.9200          4.1025          4.1025          4.1025          0.0000          0.0000          0.0000
   3.9400          4.1237          4.1237          4.1237          0.0000          0.0000          0.0000
   3.9600          4.1317          4.1317          4.1317          0.0000          0.0000          0.0000
   3.9800          4.1246          4.1246          4.1246          0.0000          0.0000          0.0000
   4.0000          4.1020          4.1020          4.1020          0.0000          0.0000          0.0000
   4.0200          4.0650          4.0650          4.0650          0.0000          0.0000          0.0000
   4.0400          4.0161          4.0161          4.0161          0.0000          0.0000          0.0000
   4.0600          3.9584          3.9584          3.9584          0.0000          0.0000          0.0000
   4.0800          3.8957          3.8957          3.8957          0.0000          0.0000          0.0000
   4.1000          3.8317          3.8317          3.8317          0.0000          0.0000          0.0000
   4.1200          3.7694          3.7694          3.7694          0.0000          0.0000          0.0000
   4.1400          3.7113          3.7113          3.7113          0.0000          0.0000          0.0000
   4.1600          3.6589          3.6589          3.6589          0.0000          0.0000          0.0000
   4.1800          3.6128          3.6128          3.6128          0.0000          0.0000          0.0000
   4.2000          3.5730          3.5730          3.5730          0.0000          0.0000          0.0000
   4.2200          3.5393          3.5393          3.5393          0.0000          0.0000          0.0000
   4.2400          3.5114          3.5114          3.5114          0.0000          0.0000          0.0000
   4.2600          3.4894          3.4894          3.4894          0.0000          0.0000          0.0000
   4.2800          3.4737          3.4737          3.4737          0.0000          0.0000          0.0000
   4.3000          3.4648          3.4648          3.4648          0.0000          0.0000          0.0000
   4.3200          3.4631          3.4631          3.4631          0.0000          0.0000          0.0000
   4.3400          3.4684          3.4684          3.4684          0.0000          0.0000          0.0000
   4.3600          3.4797          3.4797          3.4797          0.0000          0.0000          0.0000
   4.3800          3.4952          3.4952          3.4952          0.0000          0.0000          0.0000
   4.4000          3.5123          3.5123          3.5123          0.0000          0.0000          0.0000
   4.4200          3.5279          3.5279          3.5279          0.0000          0.0000          0.0000
   4.4400          3.5392          3.5392          3.5392          0.0000          0.0000          0.0000
   4.4600          3.5439          3.5439          3.5439          0.0000          0.0000          0.0000
   4.4800          3.5406          3.5406          3.5406          0.0000          0.0000          0.0000
   4.5000          3.5290          3.5290          3.5290          0.0000          0.0000          0.0000
   4.5200          3.5098          3.5098          3.5098          0.0000          0.0000          0.0000
   4.5400          3.4843          3.4843          3.4843          0.0000          0.0000          0.0000
   4.5600          3.4542          3.4542          3.4542          0.0000          0.0000          0.0000
   4.5800          3.4210          3.4210          3.4210          0.0000          0.0000          0.0000
   4.6000          3.3862          3.3862          3.3862          0.0000          0.0000          0.0000
   4.6200          3.3511          3.3511          3.3511          0.0000          0.0000          0.0000
   4.6400          3.3170          3.3170          3.3170          0.0000          0.0000          0.0000
   4.6600          3.2853          3.2853          3.2853          0.0000          0.0000          0.0000
   4.6800          3.2577          3.2577          3.2577          0.0000          0.0000          0.0000
   4.7000          3.2357          3.2357          3.2357          0.0000          0.0000          0.0000
   4.7200          3.2204          3.2204          3.2204          0.0000          0.0000          0.0000
   4.7400          3.2127          3.2127          3.2127          0.0000          0.0000          0.0000
   4.7600          3.2126          3.2126          3.2126          0.0000          0.0000          0.0000
   4.7800          3.2195          3.2195          3.2195          0.0000          0.0000          0.0000
   4.8000          3.2322          3.2322          3.2322          0.0000          0.0000          0.0000
   4.8200          3.2490          3.2490          3.2490          0.0000          0.0000          0.0000
   4.8400          3.2683          3.2683          3.2683          0.0000          0.0000          0.0000
   4.8600          3.2882          3.2882          3.2882          0.0000          0.0000          0.0000
   4.8800          3.3070          3.3070          3.3070          0.0000          0.0000          0.0000
   4.9000          3.3232          3.3232          3.3232          0.0000          0.0000          0.0000
   4.9200          3.3354          3.3354          3.3354          0.0000          0.0000          0.0000
   4.9400          3.3424          3.3424          3.3424          0.0000          0.0000          0.0000
   4.9600          3.3436          3.3436          3.3436          0.0000          0.0000          0.0000
   4.9800          3.3386          3.3386          3.3386          0.0000          0.0000          0.0000
   5.0000          3.3277          3.3277          3.3277          0.0000          0.0000          0.0000
   5.0200          3.3116          3.3116          3.3116          0.0000          0.0000          0.0000
   5.0400          3.2914          3.2914          3.2914          0.0000          0.0000          0.0000
   5.0600          3.2684          3.2684          3.2684          0.0000          0.0000          0.0000
   5.0800          3.2440          3.2440          3.2440          0.0000          0.0000          0.0000
   5.1000          3.2192          3.2192          3.2192          0.0000          0.0000          0.0000
   5.1200          3.1950          3.1950          3.1950          0.0000          0.0000          0.0000
   5.1400          3.1723          3.1723          3.1723          0.0000          0.0000          0.0000
   5.1600          3.1518          3.1518          3.1518          0.0000          0.0000          0.0000
   5.1800          3.1345          3.1345          3.1345          0.0000          0.0000          0.0000
   5.2000          3.1211          3.1211          3.1211          0.0000          0.0000          0.0000
   5.2200          3.1127          3.1127          3.1127          0.0000          0.0000          0.0000
   5.2400          3.1096          3.1096          3.1096          0.0000          0.0000          0.0000
   5.2600          3.1123          3.1123          3.1123          0.0000          0.0000          0.0000
   5.2800          3.1202          3.1202          3.1202          0.0000          0.0000          0.0000
   5.3000          3.1325          3.1325          3.1325          0.0000          0.0000          0.0000
   5.3200          3.1480          3.1480          3.1480          0.0000          0.0000          0.0000
   5.3400          3.1654          3.1654          3.1654          0.0000          0.0000          0.0000
   5.3600          3.1836          3.1836          3.1836          0.0000          0.0000          0.0000
   5.3800          3.2017          3.2017          3.2017          0.0000          0.0000          0.0000
   5.4000          3.2193          3.2193          3.2193          0.0000          0.0000          0.0000
   5.4200          3.2359          3.2359          3.2359          0.0000          0.0000          0.0000
   5.4400          3.2516          3.2516          3.2516          0.0000          0.0000          0.0000
   5.4600          3.2661          3.2661          3.2661          0.0000          0.0000          0.0000
   5.4800          3.2796          3.2796          3.2796          0.0000          0.0000          0.0000
   5.5000          3.2919          3.2919          3.2919          0.0000          0.0000          0.0000
   5.5200          3.3030          3.3030          3.3030          0.0000          0.0000          0.0000
   5.5400          3.3129          3.3129          3.3129          0.0000          0.0000          0.0000
   5.5600          3.3215          3.3215          3.3215          0.0000          0.0000          0.0000
   5.5800          3.3287          3.3287          3.3287          0.0000          0.0000          0.0000
   5.6000          3.3342          3.3342          3.3342          0.0000          0.0000          0.0000
   5.6200          3.3379          3.3379          3.3379          0.0000          0.0000          0.0000
   5.6400          3.3393          3.3393          3.3393          0.0000          0.0000          0.0000
   5.6600          3.3383          3.3383          3.3383          0.0000          0.0000          0.0000
   5.6800          3.3344          3.3344          3.3344          0.0000          0.0000          0.0000
   5.7000          3.3279          3.3279          3.3279          0.0000          0.0000          0.0000
   5.7200          3.3189          3.3189          3.3189          0.0000          0.0000          0.0000
   5.7400          3.3080          3.3080          3.3080          0.0000          0.0000          0.0000
   5.7600          3.2963          3.2963          3.2963          0.0000          0.0000          0.0000
   5.7800          3.2849          3.2849          3.2849          0.0000          0.0000          0.0000
   5.8000          3.2752          3.2752          3.2752          0.0000          0.0000          0.0000
   5.8200          3.2685          3.2685          3.2685          0.0000          0.0000          0.0000
   5.8400          3.2659          3.2659          3.2659          0.0000          0.0000          0.0000
   5.8600          3.2682          3.2682          3.2682          0.0000          0.0000          0.0000
   5.8800          3.2759          3.2759          3.2759          0.0000          0.0000          0.0000
   5.9000          3.2887          3.2887          3.2887          0.0000          0.0000          0.0000
   5.9200          3.3063          3.3063          3.3063          0.0000          0.0000          0.0000
   5.9400          3.3280          3.3280          3.3280          0.0000          0.0000          0.0000
   5.9600          3.3529          3.3529          3.3529          0.0000          0.0000          0.0000
   5.9800          3.3800          3.3800          3.3800          0.0000          0.0000          0.0000
   6.0000          3.4082          3.4082          3.4082          0.0000          0.0000          0.0000
   6.0200          3.4364          3.4364          3.4364          0.0000          0.0000          0.0000
   6.0400          3.4638          3.4638          3.4638          0.0000          0.0000          0.0000
   6.0600          3.4895          3.4895          3.4895          0.0000          0.0000          0.0000
   6.0800          3.5132          3.5132          3.5132          0.0000          0.0000          0.0000
   6.1000          3.5344          3.5344          3.5344          0.0000          0.0000          0.0000
   6.1200          3.5532          3.5532          3.5532          0.0000          0.0000          0.0000
   6.1400          3.5694          3.5694          3.5694          0.0000          0.0000          0.0000
   6.1600          3.5831          3.5831          3.5831          0.0000          0.0000          0.0000
   6.1800          3.5946          3.5946          3.5946          0.0000          0.0000          0.0000
   6.2000          3.6043          3.6043          3.6043          0.0000          0.0000          0.0000
   6.2200          3.6131          3.6131          3.6131          0.0000          0.0000          0.0000
   6.2400          3.6223          3.6223          3.6223          0.0000          0.0000          0.0000
   6.2600          3.6336          3.6336          3.6336          0.0000          0.0000          0.0000
   6.2800          3.6491          3.6491          3.6491          0.0000          0.0000          0.0000
   6.3000          3.6704          3.6704          3.6704          0.0000          0.0000          0.0000
   6.3200          3.6992          3.6992          3.6992          0.0000          0.0000          0.0000
   6.3400          3.7361          3.7361          3.7361          0.0000          0.0000          0.0000
   6.3600          3.7811          3.7811          3.7811          0.0000          0.0000          0.0000
   6.3800          3.8329          3.8329          3.8329          0.0000          0.0000          0.0000
   6.4000          3.8899          3.8899          3.8899          0.0000          0.0000          0.0000
   6.4200          3.9495          3.9495          3.9495          0.0000          0.0000          0.0000
   6.4400          4.0094          4.0094          4.0094          0.0000          0.0000          0.0000
   6.4600          4.0668          4.0668          4.0668          0.0000          0.0000          0.0000
   6.4800          4.1196          4.1196          4.1196          0.0000          0.0000          0.0000
   6.5000          4.1663          4.1663          4.1663          0.0000          0.0000          0.0000
   6.5200          4.2057          4.2057          4.2057          0.0000          0.0000          0.0000
   6.5400          4.2376          4.2376          4.2376          0.0000          0.0000          0.0000
   6.5600          4.2625          4.2625          4.2625          0.0000          0.0000          0.0000
   6.5800          4.2813          4.2813          4.2813          0.0000          0.0000          0.0000
   6.6000          4.2955          4.2955          4.2955          0.0000          0.0000          0.0000
   6.6200          4.3064          4.3064          4.3064          0.0000          0.0000          0.0000
   6.6400          4.3157          4.3157          4.3157          0.0000          0.0000          0.0000
   6.6600          4.3244          4.3244          4.3244          0.0000          0.0000          0.0000
   6.6800          4.3331          4.3331          4.3331          0.0000          0.0000          0.0000
   6.7000          4.3418          4.3418          4.3418          0.0000          0.0000          0.0000
   6.7200          4.3498          4.3498          4.3498          0.0000          0.0000          0.0000
   6.7400          4.3564          4.3564          4.3564          0.0000          0.0000          0.0000
   6.7600          4.3609          4.3609          4.3609          0.0000          0.0000          0.0000
   6.7800          4.3632          4.3632          4.3632          0.0000          0.0000          0.0000
   6.8000          4.3636          4.3636          4.3636          0.0000          0.0000          0.0000
   6.8200          4.3631          4.3631          4.3631          0.0000          0.0000          0.0000
   6.8400          4.3632          4.3632          4.3632          0.0000          0.0000          0.0000
   6.8600          4.3652          4.3652          4.3652          0.0000          0.0000          0.0000
   6.8800          4.3702          4.3702          4.3702          0.0000          0.0000          0.0000
   6.9000          4.3782          4.3782          4.3782          0.0000          0.0000          0.0000
   6.9200          4.3889          4.3889          4.3889          0.0000          0.0000          0.0000
   6.9400          4.4008          4.4008          4.4008          0.0000          0.0000          0.0000
   6.9600          4.4124          4.4124          4.4124          0.0000          0.0000          0.0000
   6.9800          4.4220          4.4220          4.4220          0.0000          0.0000          0.0000
   7.0000          4.4286          4.4286          4.4286          0.0000          0.0000          0.0000
   7.0200          4.4318          4.4318          4.4318          0.0000          0.0000          0.0000
   7.0400          4.4322          4.4322          4.4322          0.0000          0.0000          0.0000
   7.0600          4.4312          4.4312          4.4312          0.0000          0.0000          0.0000
   7.0800          4.4313          4.4313          4.4313          0.0000          0.0000          0.0000
   7.1000          4.4347          4.4347          4.4347          0.0000          0.0000          0.0000
   7.1200          4.4439          4.4439          4.4439          0.0000          0.0000          0.0000
   7.1400          4.4602          4.4602          4.4602          0.0000          0.0000          0.0000
   7.1600          4.4840          4.4840          4.4840          0.0000          0.0000          0.0000
   7.1800          4.5145          4.5145          4.5145          0.0000          0.0000          0.0000
   7.2000          4.5496          4.5496          4.5496          0.0000          0.0000          0.0000
   7.2200          4.5864          4.5864          4.5864          0.0000          0.0000          0.0000
   7.2400          4.6218          4.6218          4.6218          0.0000          0.0000          0.0000
   7.2600          4.6532          4.6532          4.6532          0.0000          0.0000          0.0000
   7.2800          4.6788          4.6788          4.6788          0.0000          0.0000          0.0000
   7.3000          4.6975          4.6975          4.6975          0.0000          0.0000          0.0000
   7.3200          4.7096          4.7096          4.7096          0.0000          0.0000          0.0000
   7.3400          4.7155          4.7155          4.7155          0.0000          0.0000          0.0000
   7.3600          4.7163          4.7163          4.7163          0.0000          0.0000          0.0000
   7.3800          4.7129          4.7129          4.7129          0.0000          0.0000          0.0000
   7.4000          4.7061          4.7061          4.7061          0.0000          0.0000          0.0000
   7.4200          4.6968          4.6968          4.6968          0.0000          0.0000          0.0000
   7.4400          4.6858          4.6858          4.6858          0.0000          0.0000          0.0000
   7.4600          4.6738          4.6738          4.6738          0.0000          0.0000          0.0000
   7.4800          4.6620          4.6620          4.6620          0.0000          0.0000          0.0000
   7.5000          4.6514          4.6514          4.6514          0.0000          0.0000          0.0000
   7.5200          4.6426          4.6426          4.6426          0.0000          0.0000          0.0000
   7.5400          4.6361          4.6361          4.6361          0.0000          0.0000          0.0000
   7.5600          4.6321          4.6321          4.6321          0.0000          0.0000          0.0000
   7.5800          4.6300          4.6300          4.6300          0.0000          0.0000          0.0000
   7.6000          4.6292          4.6292          4.6292          0.0000          0.0000          0.0000
   7.6200          4.6288          4.6288          4.6288          0.0000          0.0000          0.0000
   7.6400          4.6276          4.6276          4.6276          0.0000          0.0000          0.0000
   7.6600          4.6244          4.6244          4.6244          0.0000          0.0000          0.0000
   7.6800          4.6181          4.6181          4.6181          0.0000          0.0000          0.0000
   7.7000          4.6077          4.6077          4.6077          0.0000          0.0000          0.0000
   7.7200          4.5923          4.5923          4.5923          0.0000          0.0000          0.0000
   7.7400          4.5714          4.5714          4.5714          0.0000          0.0000          0.0000
   7.7600          4.5450          4.5450          4.5450          0.0000          0.0000          0.0000
   7.7800          4.5137          4.5137          4.5137          0.0000          0.0000          0.0000
   7.8000          4.4788          4.4788          4.4788          0.0000          0.0000          0.0000
   7.8200          4.4421          4.4421          4.4421          0.0000          0.0000          0.0000
   7.8400          4.4058          4.4058          4.4058          0.0000          0.0000          0.0000
   7.8600          4.3723          4.3723          4.3723          0.0000          0.0000          0.0000
   7.8800          4.3439          4.3439          4.3439          0.0000          0.0000          0.0000
   7.9000          4.3226          4.3226          4.3226          0.0000          0.0000          0.0000
   7.9200          4.3096          4.3096          4.3096          0.0000          0.0000          0.0000
   7.9400          4.3057          4.3057          4.3057          0.0000          0.0000          0.0000
   7.9600          4.3112          4.3112          4.3112          0.0000          0.0000          0.0000
   7.9800          4.3258          4.3258          4.3258          0.0000          0.0000          0.0000
   8.0000          4.3490          4.3490          4.3490          0.0000          0.0000          0.0000
   8.0200          4.3797          4.3797          4.3797          0.0000          0.0000          0.0000
   8.0400          4.4163          4.4163          4.4163          0.0000          0.0000          0.0000
   8.0600          4.4561          4.4561          4.4561          0.0000          0.0000          0.0000
   8.0800          4.4961          4.4961          4.4961          0.0000          0.0000          0.0000
   8.1000          4.5324          4.5324          4.5324          0.0000          0.0000          0.0000
   8.1200          4.5611          4.5611          4.5611          0.0000          0.0000          0.0000
   8.1400          4.5784          4.5784          4.5784          0.0000          0.0000          0.0000
   8.1600          4.5817          4.5817          4.5817          0.0000          0.0000          0.0000
   8.1800          4.5699          4.5699          4.5699          0.0000          0.0000          0.0000
   8.2000          4.5434          4.5434          4.5434          0.0000          0.0000          0.0000
   8.2200          4.5038          4.5038          4.5038          0.0000          0.0000          0.0000
   8.2400          4.4541          4.4541          4.4541          0.0000          0.0000          0.0000
   8.2600          4.3973          4.3973          4.3973          0.0000          0.0000          0.0000
   8.2800          4.3364          4.3364          4.3364          0.0000          0.0000          0.0000
   8.3000          4.2742          4.2742          4.2742          0.0000          0.0000          0.0000
   8.3200          4.2125          4.2125          4.2125          0.0000          0.0000          0.0000
   8.3400          4.1529          4.1529          4.1529          0.0000          0.0000          0.0000
   8.3600          4.0966          4.0966          4.0966          0.0000          0.0000          0.0000
   8.3800          4.0449          4.0449          4.0449          0.0000          0.0000          0.0000
   8.4000          3.9994          3.9994          3.9994          0.0000          0.0000          0.0000
   8.4200          3.9618          3.9618          3.9618          0.0000          0.0000          0.0000
   8.4400          3.9339          3.9339          3.9339          0.0000          0.0000          0.0000
   8.4600          3.9171          3.9171          3.9171          0.0000          0.0000          0.0000
   8.4800          3.9124          3.9124          3.9124          0.0000          0.0000          0.0000
   8.5000          3.9200          3.9200          3.9200          0.0000          0.0000          0.0000
   8.5200          3.9387          3.9387          3.9387          0.0000          0.0000          0.0000
   8.5400          3.9668          3.9668          3.9668          0.0000          0.0000          0.0000
   8.5600          4.0017          4.0017          4.0017          0.0000          0.0000          0.0000
   8.5800          4.0401          4.0401          4.0401          0.0000          0.0000          0.0000
   8.6000          4.0790          4.0790          4.0790          0.0000          0.0000          0.0000
   8.6200          4.1155          4.1155          4.1155          0.0000          0.0000          0.0000
   8.6400          4.1470          4.1470          4.1470          0.0000          0.0000          0.0000
   8.6600          4.1715          4.1715          4.1715          0.0000          0.0000          0.0000
   8.6800          4.1878          4.1878          4.1878          0.0000          0.0000          0.0000
   8.7000          4.1948          4.1948          4.1948          0.0000          0.0000          0.0000
   8.7200          4.1925          4.1925          4.1925          0.0000          0.0000          0.0000
   8.7400          4.1810          4.1810          4.1810          0.0000          0.0000          0.0000
   8.7600          4.1611          4.1611          4.1611          0.0000          0.0000          0.0000
   8.7800          4.1339          4.1339          4.1339          0.0000          0.0000          0.0000
   8.8000          4.1006          4.1006          4.1006          0.0000          0.0000          0.0000
   8.8200          4.0628          4.0628          4.0628          0.0000          0.0000          0.0000
   8.8400          4.0216          4.0216          4.0216          0.0000          0.0000          0.0000
   8.8600          3.9783          3.9783          3.9783          0.0000          0.0000          0.0000
   8.8800          3.9339          3.9339          3.9339          0.0000          0.0000          0.0000
   8.9000          3.8894          3.8894          3.8894          0.0000          0.0000          0.0000
   8.9200          3.8456          3.8456          3.8456          0.0000          0.0000          0.0000
   8.9400          3.8032          3.8032          3.8032          0.0000          0.0000          0.0000
   8.9600          3.7629          3.7629          3.7629          0.0000          0.0000          0.0000
   8.9800          3.7249          3.7249          3.7249          0.0000          0.0000          0.0000
   9.0000          3.6893          3.6893          3.6893          0.0000          0.0000          0.0000
   9.0200          3.6561          3.6561          3.6561          0.0000          0.0000          0.0000
   9.0400          3.6250          3.6250          3.6250          0.0000          0.0000          0.0000
   9.0600          3.5956          3.5956          3.5956          0.0000          0.0000          0.0000
   9.0800          3.5677          3.5677          3.5677          0.0000          0.0000          0.0000
   9.1000          3.5413          3.5413          3.5413          0.0000          0.0000          0.0000
   9.1200          3.5163          3.5163          3.5163          0.0000          0.0000          0.0000
   9.1400          3.4928          3.4928          3.4928          0.0000          0.0000          0.0000
   9.1600          3.4706          3.4706          3.4706          0.0000          0.0000          0.0000
   9.1800          3.4496          3.4496          3.4496          0.0000          0.0000          0.0000
   9.2000          3.4294          3.4294          3.4294          0.0000          0.0000          0.0000
   9.2200          3.4098          3.4098          3.4098          0.0000          0.0000          0.0000
   9.2400          3.3907          3.3907          3.3907          0.0000          0.0000          0.0000
   9.2600          3.3724          3.3724          3.3724          0.0000          0.0000          0.0000
   9.2800          3.3557          3.3557          3.3557          0.0000          0.0000          0.0000
   9.3000          3.3415          3.3415          3.3415          0.0000          0.0000          0.0000
   9.3200          3.3310          3.3310          3.3310          0.0000          0.0000          0.0000
   9.3400          3.3255          3.3255          3.3255          0.0000          0.0000          0.0000
   9.3600          3.3255          3.3255          3.3255          0.0000          0.0000          0.0000
   9.3800          3.3311          3.3311          3.3311          0.0000          0.0000          0.0000
   9.4000          3.3411          3.3411          3.3411          0.0000          0.0000          0.0000
   9.4200          3.3538          3.3538          3.3538          0.0000          0.0000          0.0000
   9.4400          3.3665          3.3665          3.3665          0.0000          0.0000          0.0000
   9.4600          3.3762          3.3762          3.3762          0.0000          0.0000          0.0000
   9.4800          3.3804          3.3804          3.3804          0.0000          0.0000          0.0000
   9.5000          3.3767          3.3767          3.3767          0.0000          0.0000          0.0000
   9.5200          3.3639          3.3639          3.3639          0.0000          0.0000          0.0000
   9.5400          3.3418          3.3418          3.3418          0.0000          0.0000          0.0000
   9.5600          3.3114          3.3114          3.3114          0.0000          0.0000          0.0000
   9.5800          3.2742          3.2742          3.2742          0.0000          0.0000          0.0000
   9.6000          3.2326          3.2326          3.2326          0.0000          0.0000          0.0000
   9.6200          3.1890          3.1890          3.1890          0.0000          0.0000          0.0000
   9.6400          3.1457          3.1457          3.1457          0.0000          0.0000          0.0000
   9.6600          3.1047          3.1047          3.1047          0.0000          0.0000          0.0000
   9.6800          3.0676          3.0676          3.0676          0.0000          0.0000          0.0000
   9.7000          3.0350          3.0350          3.0350          0.0000          0.0000          0.0000
   9.7200          3.0072          3.0072          3.0072          0.0000          0.0000          0.0000
   9.7400          2.9838          2.9838          2.9838          0.0000          0.0000          0.0000
   9.7600          2.9640          2.9640          2.9640          0.0000          0.0000          0.0000
   9.7800          2.9470          2.9470          2.9470          0.0000          0.0000          0.0000
   9.8000          2.9319          2.9319          2.9319          0.0000          0.0000          0.0000
   9.8200          2.9181          2.9181          2.9181          0.0000          0.0000          0.0000
   9.8400          2.9053          2.9053          2.9053          0.0000          0.0000          0.0000
   9.8600          2.8936          2.8936          2.8936          0.0000          0.0000          0.0000
   9.8800          2.8837          2.8837          2.8837          0.0000          0.0000          0.0000
   9.9000          2.8760          2.8760          2.8760          0.0000          0.0000          0.0000
   9.9200          2.8711          2.8711          2.8711          0.0000          0.0000          0.0000
   9.9400          2.8689          2.8689          2.8689          0.0000          0.0000          0.0000
   9.9600          2.8690          2.8690          2.8690          0.0000          0.0000          0.0000
   9.9800          2.8703          2.8703          2.8703          0.0000          0.0000          0.0000
  10.0000          2.8714          2.8714          2.8714          0.0000          0.0000          0.0000
  10.0200          2.8709          2.8709          2.8709          0.0000          0.0000          0.0000
  10.0400          2.8675          2.8675          2.8675          0.0000          0.0000          0.0000
  10.0600          2.8603          2.8603          2.8603          0.0000          0.0000          0.0000
  10.0800          2.8491          2.8491          2.8491          0.0000          0.0000          0.0000
  10.1000          2.8341          2.8341          2.8341          0.0000          0.0000          0.0000
  10.1200          2.8160          2.8160          2.8160          0.0000          0.0000          0.0000
  10.1400          2.7958          2.7958          2.7958          0.0000          0.0000          0.0000
  10.1600          2.7744          2.7744          2.7744          0.0000          0.0000          0.0000
  10.1800          2.7529          2.7529          2.7529          0.0000          0.0000          0.0000
  10.2000          2.7321          2.7321          2.7321          0.0000          0.0000          0.0000
  10.2200          2.7132          2.7132          2.7132          0.0000          0.0000          0.0000
  10.2400          2.6971          2.6971          2.6971          0.0000          0.0000          0.0000
  10.2600          2.6847          2.6847          2.6847          0.0000          0.0000          0.0000
  10.2800          2.6769          2.6769          2.6769          0.0000          0.0000          0.0000
  10.3000          2.6746          2.6746          2.6746          0.0000          0.0000          0.0000
  10.3200          2.6782          2.6782          2.6782          0.0000          0.0000          0.0000
  10.3400          2.6880          2.6880          2.6880          0.0000          0.0000          0.0000
  10.3600          2.7036          2.7036          2.7036          0.0000          0.0000          0.0000
  10.3800          2.7239          2.7239          2.7239          0.0000          0.0000          0.0000
  10.4000          2.7475          2.7475          2.7475          0.0000          0.0000          0.0000
  10.4200          2.7726          2.7726          2.7726          0.0000          0.0000          0.0000
  10.4400          2.7972          2.7972          2.7972          0.0000          0.0000          0.0000
  10.4600          2.8193          2.8193          2.8193          0.0000          0.0000          0.0000
  10.4800          2.8373          2.8373          2.8373          0.0000          0.0000          0.0000
  10.5000          2.8504          2.8504          2.8504          0.0000          0.0000          0.0000
  10.5200          2.8582          2.8582          2.8582          0.0000          0.0000          0.0000
  10.5400          2.8611          2.8611          2.8611          0.0000          0.0000          0.0000
  10.5600          2.8603          2.8603          2.8603          0.0000          0.0000          0.0000
  10.5800          2.8569          2.8569          2.8569          0.0000          0.0000          0.0000
  10.6000          2.8522          2.8522          2.8522          0.0000          0.0000          0.0000
  10.6200          2.8471          2.8471          2.8471          0.0000          0.0000          0.0000
  10.6400          2.8424          2.8424          2.8424          0.0000          0.0000          0.0000
  10.6600          2.8380          2.8380          2.8380          0.0000          0.0000          0.0000
  10.6800          2.8338          2.8338          2.8338          0.0000          0.0000          0.0000
  10.7000          2.8297          2.8297          2.8297          0.0000          0.0000          0.0000
  10.7200          2.8255          2.8255          2.8255          0.0000          0.0000          0.0000
  10.7400          2.8212          2.8212          2.8212          0.0000          0.0000          0.0000
  10.7600          2.8173          2.8173          2.8173          0.0000          0.0000          0.0000
  10.7800          2.8142          2.8142          2.8142          0.0000          0.0000          0.0000
  10.8000          2.8124          2.8124          2.8124          0.0000          0.0000          0.0000
  10.8200          2.8122          2.8122          2.8122          0.0000          0.0000          0.0000
  10.8400          2.8136          2.8136          2.8136          0.0000          0.0000          0.0000
  10.8600          2.8160          2.8160          2.8160          0.0000          0.0000          0.0000
  10.8800          2.8191          2.8191          2.8191          0.0000          0.0000          0.0000
  10.9000          2.8220          2.8220          2.8220          0.0000          0.0000          0.0000
  10.9200          2.8243          2.8243          2.8243          0.0000          0.0000          0.0000
  10.9400          2.8255          2.8255          2.8255          0.0000          0.0000          0.0000
  10.9600          2.8254          2.8254          2.8254          0.0000          0.0000          0.0000
  10.9800          2.8241          2.8241          2.8241          0.0000          0.0000          0.0000
  11.0000          2.8217          2.8217          2.8217          0.0000          0.0000          0.0000
  11.0200          2.8185          2.8185          2.8185          0.0000          0.0000          0.0000
  11.0400          2.8147          2.8147          2.8147          0.0000          0.0000          0.0000
  11.0600          2.8107          2.8107          2.8107          0.0000          0.0000          0.0000
  11.0800          2.8068          2.8068          2.8068          0.0000          0.0000          0.0000
  11.1000          2.8034          2.8034          2.8034          0.0000          0.0000          0.0000
  11.1200          2.8012          2.8012          2.8012          0.0000          0.0000          0.0000
  11.1400          2.8008          2.8008          2.8008          0.0000          0.0000          0.0000
  11.1600          2.8026          2.8026          2.8026          0.0000          0.0000          0.0000
  11.1800          2.8070          2.8070          2.8070          0.0000          0.0000          0.0000
  11.2000          2.8137          2.8137          2.8137          0.0000          0.0000          0.0000
  11.2200          2.8224          2.8224          2.8224          0.0000          0.0000          0.0000
  11.2400          2.8320          2.8320          2.8320          0.0000          0.0000          0.0000
  11.2600          2.8415          2.8415          2.8415          0.0000          0.0000          0.0000
  11.2800          2.8498          2.8498          2.8498          0.0000          0.0000          0.0000
  11.3000          2.8559          2.8559          2.8559          0.0000          0.0000          0.0000
  11.3200          2.8596          2.8596          2.8596          0.0000          0.0000          0.0000
  11.3400          2.8610          2.8610          2.8610          0.0000          0.0000          0.0000
  11.3600          2.8609          2.8609          2.8609          0.0000          0.0000          0.0000
  11.3800          2.8604          2.8604          2.8604          0.0000          0.0000          0.0000
  11.4000          2.8608          2.8608          2.8608          0.0000          0.0000          0.0000
  11.4200          2.8634          2.8634          2.8634          0.0000          0.0000          0.0000
  11.4400          2.8694          2.8694          2.8694          0.0000          0.0000          0.0000
  11.4600          2.8791          2.8791          2.8791          0.0000          0.0000          0.0000
  11.4800          2.8929          2.8929          2.8929          0.0000          0.0000          0.0000
  11.5000          2.9102          2.9102          2.9102          0.0000          0.0000          0.0000
  11.5200          2.9308          2.9308          2.9308          0.0000          0.0000          0.0000
  11.5400          2.9539          2.9539          2.9539          0.0000          0.0000          0.0000
  11.5600          2.9789          2.9789          2.9789          0.0000          0.0000          0.0000
  11.5800          3.0055          3.0055          3.0055          0.0000          0.0000          0.0000
  11.6000          3.0331          3.0331          3.0331          0.0000          0.0000          0.0000
  11.6200          3.0613          3.0613          3.0613          0.0000          0.0000          0.0000
  11.6400          3.0899          3.0899          3.0899          0.0000          0.0000          0.0000
  11.6600          3.1183          3.1183          3.1183          0.0000          0.0000          0.0000
  11.6800          3.1461          3.1461          3.1461          0.0000          0.0000          0.0000
  11.7000          3.1728          3.1728          3.1728          0.0000          0.0000          0.0000
  11.7200          3.1980          3.1980          3.1980          0.0000          0.0000          0.0000
  11.7400          3.2212          3.2212          3.2212          0.0000          0.0000          0.0000
  11.7600          3.2420          3.2420          3.2420          0.0000          0.0000          0.0000
  11.7800          3.2601          3.2601          3.2601          0.0000          0.0000          0.0000
  11.8000          3.2752          3.2752          3.2752          0.0000          0.0000          0.0000
  11.8200          3.2874          3.2874          3.2874          0.0000          0.0000          0.0000
  11.8400          3.2970          3.2970          3.2970          0.0000          0.0000          0.0000
  11.8600          3.3045          3.3045          3.3045          0.0000          0.0000          0.0000
  11.8800          3.3106          3.3106          3.3106          0.0000          0.0000          0.0000
  11.9000          3.3163          3.3163          3.3163          0.0000          0.0000          0.0000
  11.9200          3.3224          3.3224          3.3224          0.0000          0.0000          0.0000
  11.9400          3.3293          3.3293          3.3293          0.0000          0.0000          0.0000
  11.9600          3.3376          3.3376          3.3376          0.0000          0.0000          0.0000
  11.9800          3.3470          3.3470          3.3470          0.0000          0.0000          0.0000
  12.0000          3.3574          3.3574          3.3574          0.0000          0.0000          0.0000
  12.0200          3.3684          3.3684          3.3684          0.0000          0.0000          0.0000
  12.0400          3.3798          3.3798          3.3798          0.0000          0.0000          0.0000
  12.0600          3.3912          3.3912          3.3912          0.0000          0.0000          0.0000
  12.0800          3.4028          3.4028          3.4028          0.0000          0.0000          0.0000
  12.1000          3.4147          3.4147          3.4147          0.0000          0.0000          0.0000
  12.1200          3.4275          3.4275          3.4275          0.0000          0.0000          0.0000
  12.1400          3.4416          3.4416          3.4416          0.0000          0.0000          0.0000
  12.1600          3.4573          3.4573          3.4573          0.0000          0.0000          0.0000
  12.1800          3.4748          3.4748          3.4748          0.0000          0.0000          0.0000
  12.2000          3.4935          3.4935          3.4935          0.0000          0.0000          0.0000
  12.2200          3.5124          3.5124          3.5124          0.0000          0.0000          0.0000
  12.2400          3.5301          3.5301          3.5301          0.0000          0.0000          0.0000
  12.2600          3.5450          3.5450          3.5450          0.0000          0.0000          0.0000
  12.2800          3.5558          3.5558          3.5558          0.0000          0.0000          0.0000
  12.3000          3.5614          3.5614          3.5614          0.0000          0.0000          0.0000
  12.3200          3.5614          3.5614          3.5614          0.0000          0.0000          0.0000
  12.3400          3.5562          3.5562          3.5562          0.0000          0.0000          0.0000
  12.3600          3.5466          3.5466          3.5466          0.0000          0.0000          0.0000
  12.3800          3.5337          3.5337          3.5337          0.0000          0.0000          0.0000
  12.4000          3.5188          3.5188          3.5188          0.0000          0.0000          0.0000
  12.4200          3.5032          3.5032          3.5032          0.0000          0.0000          0.0000
  12.4400          3.4880          3.4880          3.4880          0.0000          0.0000          0.0000
  12.4600          3.4740          3.4740          3.4740          0.0000          0.0000          0.0000
  12.4800          3.4619          3.4619          3.4619          0.0000          0.0000          0.0000
  12.5000          3.4524          3.4524          3.4524          0.0000          0.0000          0.0000
  12.5200          3.4456          3.4456          3.4456          0.0000          0.0000          0.0000
  12.5400          3.4419          3.4419          3.4419          0.0000          0.0000          0.0000
  12.5600          3.4412          3.4412          3.4412          0.0000          0.0000          0.0000
  12.5800          3.4435          3.4435          3.4435          0.0000          0.0000          0.0000
  12.6000          3.4482          3.4482          3.4482          0.0000          0.0000          0.0000
  12.6200          3.4551          3.4551          3.4551          0.0000          0.0000          0.0000
  12.6400          3.4634          3.4634          3.4634          0.0000          0.0000          0.0000
  12.6600          3.4727          3.4727          3.4727          0.0000          0.0000          0.0000
  12.6800          3.4827          3.4827          3.4827          0.0000          0.0000          0.0000
  12.7000          3.4931          3.4931          3.4931          0.0000          0.0000          0.0000
  12.7200          3.5038          3.5038          3.5038          0.0000          0.0000          0.0000
  12.7400          3.5150          3.5150          3.5150          0.0000          0.0000          0.0000
  12.7600          3.5263          3.5263          3.5263          0.0000          0.0000          0.0000
  12.7800          3.5376          3.5376          3.5376          0.0000          0.0000          0.0000
  12.8000          3.5480          3.5480          3.5480          0.0000          0.0000          0.0000
  12.8200          3.5569          3.5569          3.5569          0.0000          0.0000          0.0000
  12.8400          3.5634          3.5634          3.5634          0.0000          0.0000          0.0000
  12.8600          3.5671          3.5671          3.5671          0.0000          0.0000          0.0000
  12.8800          3.5681          3.5681          3.5681          0.0000          0.0000          0.0000
  12.9000          3.5670          3.5670          3.5670          0.0000          0.0000          0.0000
  12.9200          3.5646          3.5646          3.5646          0.0000          0.0000          0.0000
  12.9400          3.5623          3.5623          3.5623          0.0000          0.0000          0.0000
  12.9600          3.5609          3.5609          3.5609          0.0000          0.0000          0.0000
  12.9800          3.5610          3.5610          3.5610          0.0000          0.0000          0.0000
  13.0000          3.5628          3.5628          3.5628          0.0000          0.0000          0.0000
  13.0200          3.5657          3.5657          3.5657          0.0000          0.0000          0.0000
  13.0400          3.5686          3.5686          3.5686          0.0000          0.0000          0.0000
  13.0600          3.5704          3.5704          3.5704          0.0000          0.0000          0.0000
  13.0800          3.5698          3.5698          3.5698          0.0000          0.0000          0.0000
  13.1000          3.5657          3.5657          3.5657          0.0000          0.0000          0.0000
  13.1200          3.5574          3.5574          3.5574          0.0000          0.0000          0.0000
  13.1400          3.5446          3.5446          3.5446          0.0000          0.0000          0.0000
  13.1600          3.5278          3.5278          3.5278          0.0000          0.0000          0.0000
  13.1800          3.5076          3.5076          3.5076          0.0000          0.0000          0.0000
  13.2000          3.4852          3.4852          3.4852          0.0000          0.0000          0.0000
  13.2200          3.4617          3.4617          3.4617          0.0000          0.0000          0.0000
  13.2400          3.4384          3.4384          3.4384          0.0000          0.0000          0.0000
  13.2600          3.4162          3.4162          3.4162          0.0000          0.0000          0.0000
  13.2800          3.3963          3.3963          3.3963          0.0000          0.0000          0.0000
  13.3000          3.3791          3.3791          3.3791          0.0000          0.0000          0.0000
  13.3200          3.3654          3.3654          3.3654          0.0000          0.0000          0.0000
  13.3400          3.3554          3.3554          3.3554          0.0000          0.0000          0.0000
  13.3600          3.3490          3.3490          3.3490          0.0000          0.0000          0.0000
  13.3800          3.3460          3.3460          3.3460          0.0000          0.0000          0.0000
  13.4000          3.3456          3.3456          3.3456          0.0000          0.0000          0.0000
  13.4200          3.3468          3.3468          3.3468          0.0000          0.0000          0.0000
  13.4400          3.3483          3.3483          3.3483          0.0000          0.0000          0.0000
  13.4600          3.3488          3.3488          3.3488          0.0000          0.0000          0.0000
  13.4800          3.3474          3.3474          3.3474          0.0000          0.0000          0.0000
  13.5000          3.3433          3.3433          3.3433          0.0000          0.0000          0.0000
  13.5200          3.3363          3.3363          3.3363          0.0000          0.0000          0.0000
  13.5400          3.3265          3.3265          3.3265          0.0000          0.0000          0.0000
  13.5600          3.3145          3.3145          3.3145          0.0000          0.0000          0.0000
  13.5800          3.3011          3.3011          3.3011          0.0000          0.0000          0.0000
  13.6000          3.2869          3.2869          3.2869          0.0000          0.0000          0.0000
  13.6200          3.2726          3.2726          3.2726          0.0000          0.0000          0.0000
  13.6400          3.2590          3.2590          3.2590          0.0000          0.0000          0.0000
  13.6600          3.2465          3.2465          3.2465          0.0000          0.0000          0.0000
  13.6800          3.2356          3.2356          3.2356          0.0000          0.0000          0.0000
  13.7000          3.2265          3.2265          3.2265          0.0000          0.0000          0.0000
  13.7200          3.2199          3.2199          3.2199          0.0000          0.0000          0.0000
  13.7400          3.2159          3.2159          3.2159          0.0000          0.0000          0.0000
  13.7600          3.2149          3.2149          3.2149          0.0000          0.0000          0.0000
  13.7800          3.2169          3.2169          3.2169          0.0000          0.0000          0.0000
  13.8000          3.2217          3.2217          3.2217          0.0000          0.0000          0.0000
  13.8200          3.2290          3.2290          3.2290          0.0000          0.0000          0.0000
  13.8400          3.2381          3.2381          3.2381          0.0000          0.0000          0.0000
  13.8600          3.2481          3.2481          3.2481          0.0000          0.0000          0.0000
  13.8800          3.2584          3.2584          3.2584          0.0000          0.0000          0.0000
  13.9000          3.2680          3.2680          3.2680          0.0000          0.0000          0.0000
  13.9200          3.2765          3.2765          3.2765          0.0000          0.0000          0.0000
  13.9400          3.2830          3.2830          3.2830          0.0000          0.0000          0.0000
  13.9600          3.2872          3.2872          3.2872          0.0000          0.0000          0.0000
  13.9800          3.2885          3.2885          3.2885          0.0000          0.0000          0.0000
  14.0000          3.2862          3.2862          3.2862          0.0000          0.0000          0.0000
  14.0200          3.2797          3.2797          3.2797          0.0000          0.0000          0.0000
  14.0400          3.2687          3.2687          3.2687          0.0000          0.0000          0.0000
  14.0600          3.2532          3.2532          3.2532          0.0000          0.0000          0.0000
  14.0800          3.2335          3.2335          3.2335          0.0000          0.0000          0.0000
  14.1000          3.2106          3.2106          3.2106          0.0000          0.0000          0.0000
  14.1200          3.1857          3.1857          3.1857          0.0000          0.0000          0.0000
  14.1400          3.1603          3.1603          3.1603          0.0000          0.0000          0.0000
  14.1600          3.1356          3.1356          3.1356          0.0000          0.0000          0.0000
  14.1800          3.1124          3.1124          3.1124          0.0000          0.0000          0.0000
  14.2000          3.0909          3.0909          3.0909          0.0000          0.0000          0.0000
  14.2200          3.0709          3.0709          3.0709          0.0000          0.0000          0.0000
  14.2400          3.0516          3.0516          3.0516          0.0000          0.0000          0.0000
  14.2600          3.0324          3.0324          3.0324          0.0000          0.0000          0.0000
  14.2800          3.0127          3.0127          3.0127          0.0000          0.0000          0.0000
  14.3000          2.9926          2.9926          2.9926          0.0000          0.0000          0.0000
  14.3200          2.9727          2.9727          2.9727          0.0000          0.0000          0.0000
  14.3400          2.9543          2.9543          2.9543          0.0000          0.0000          0.0000
  14.3600          2.9389          2.9389          2.9389          0.0000          0.0000          0.0000
  14.3800          2.9279          2.9279          2.9279          0.0000          0.0000          0.0000
  14.4000          2.9223          2.9223          2.9223          0.0000          0.0000          0.0000
  14.4200          2.9225          2.9225          2.9225          0.0000          0.0000          0.0000
  14.4400          2.9278          2.9278          2.9278          0.0000          0.0000          0.0000
  14.4600          2.9371          2.9371          2.9371          0.0000          0.0000          0.0000
  14.4800          2.9485          2.9485          2.9485          0.0000          0.0000          0.0000
  14.5000          2.9605          2.9605          2.9605          0.0000          0.0000          0.0000
  14.5200          2.9716          2.9716          2.9716          0.0000          0.0000          0.0000
  14.5400          2.9809          2.9809          2.9809          0.0000          0.0000          0.0000
  14.5600          2.9881          2.9881          2.9881          0.0000          0.0000          0.0000
  14.5800          2.9933          2.9933          2.9933          0.0000          0.0000          0.0000
  14.6000          2.9973          2.9973          2.9973          0.0000          0.0000          0.0000
  14.6200          3.0009          3.0009          3.0009          0.0000          0.0000          0.0000
  14.6400          3.0049          3.0049          3.0049          0.0000          0.0000          0.0000
  14.6600          3.0102          3.0102          3.0102          0.0000          0.0000          0.0000
  14.6800          3.0172          3.0172          3.0172          0.0000          0.0000          0.0000
  14.7000          3.0264          3.0264          3.0264          0.0000          0.0000          0.0000
  14.7200          3.0379          3.0379          3.0379          0.0000          0.0000          0.0000
  14.7400          3.0516          3.0516          3.0516          0.0000          0.0000          0.0000
  14.7600          3.0673          3.0673          3.0673          0.0000          0.0000          0.0000
  14.7800          3.0847          3.0847          3.0847          0.0000          0.0000          0.0000
  14.8000          3.1028          3.1028          3.1028          0.0000          0.0000          0.0000
  14.8200          3.1207          3.1207          3.1207          0.0000          0.0000          0.0000
  14.8400          3.1368          3.1368          3.1368          0.0000          0.0000          0.0000
  14.8600          3.1495          3.1495          3.1495          0.0000          0.0000          0.0000
  14.8800          3.1573          3.1573          3.1573          0.0000          0.0000          0.0000
  14.9000          3.1588          3.1588          3.1588          0.0000          0.0000          0.0000
  14.9200          3.1535          3.1535          3.1535          0.0000          0.0000          0.0000
  14.9400          3.1415          3.1415          3.1415          0.0000          0.0000          0.0000
  14.9600          3.1237          3.1237          3.1237          0.0000          0.0000          0.0000
  14.9800          3.1014          3.1014          3.1014          0.0000          0.0000          0.0000
  15.0000          3.0762          3.0762          3.0762          0.0000          0.0000          0.0000
  15.0200          3.0494          3.0494          3.0494          0.0000          0.0000          0.0000
  15.0400          3.0219          3.0219          3.0219          0.0000          0.0000          0.0000
  15.0600          2.9944          2.9944          2.9944          0.0000          0.0000          0.0000
  15.0800          2.9668          2.9668          2.9668          0.0000          0.0000          0.0000
  15.1000          2.9391          2.9391          2.9391          0.0000          0.0000          0.0000
  15.1200          2.9112          2.9112          2.9112          0.0000          0.0000          0.0000
  15.1400          2.8829          2.8829          2.8829          0.0000          0.0000          0.0000
  15.1600          2.8545          2.8545          2.8545          0.0000          0.0000          0.0000
  15.1800          2.8265          2.8265          2.8265          0.0000          0.0000          0.0000
  15.2000          2.7996          2.7996          2.7996          0.0000          0.0000          0.0000
  15.2200          2.7743          2.7743          2.7743          0.0000          0.0000          0.0000
  15.2400          2.7514          2.7514          2.7514          0.0000          0.0000          0.0000
  15.2600          2.7314          2.7314          2.7314          0.0000          0.0000          0.0000
  15.2800          2.7146          2.7146          2.7146          0.0000          0.0000          0.0000
  15.3000          2.7013          2.7013          2.7013          0.0000          0.0000          0.0000
  15.3200          2.6914          2.6914          2.6914          0.0000          0.0000          0.0000
  15.3400          2.6847          2.6847          2.6847          0.0000          0.0000          0.0000
  15.3600          2.6808          2.6808          2.6808          0.0000          0.0000          0.0000
  15.3800          2.6790          2.6790          2.6790          0.0000          0.0000          0.0000
  15.4000          2.6785          2.6785          2.6785          0.0000          0.0000          0.0000
  15.4200          2.6789          2.6789          2.6789          0.0000          0.0000          0.0000
  15.4400          2.6796          2.6796          2.6796          0.0000          0.0000          0.0000
  15.4600          2.6804          2.6804          2.6804          0.0000          0.0000          0.0000
  15.4800          2.6814          2.6814          2.6814          0.0000          0.0000          0.0000
  15.5000          2.6828          2.6828          2.6828          0.0000          0.0000          0.0000
  15.5200          2.6852          2.6852          2.6852          0.0000          0.0000          0.0000
  15.5400          2.6890          2.6890          2.6890          0.0000          0.0000          0.0000
  15.5600          2.6947          2.6947          2.6947          0.0000          0.0000          0.0000
  15.5800          2.7027          2.7027          2.7027          0.0000          0.0000          0.0000
  15.6000          2.7129          2.7129          2.7129          0.0000          0.0000          0.0000
  15.6200          2.7253          2.7253          2.7253          0.0000          0.0000          0.0000
  15.6400          2.7394          2.7394          2.7394          0.0000          0.0000          0.0000
  15.6600          2.7548          2.7548          2.7548          0.0000          0.0000          0.0000
  15.6800          2.7710          2.7710          2.7710          0.0000          0.0000          0.0000
  15.7000          2.7878          2.7878          2.7878          0.0000          0.0000          0.0000
  15.7200          2.8053          2.8053          2.8053          0.0000          0.0000          0.0000
  15.7400          2.8241          2.8241          2.8241          0.0000          0.0000          0.0000
  15.7600          2.8450          2.8450          2.8450          0.0000          0.0000          0.0000
  15.7800          2.8688          2.8688          2.8688          0.0000          0.0000          0.0000
  15.8000          2.8964          2.8964          2.8964          0.0000          0.0000          0.0000
  15.8200          2.9276          2.9276          2.9276          0.0000          0.0000          0.0000
  15.8400          2.9616          2.9616          2.9616          0.0000          0.0000          0.0000
  15.8600          2.9969          2.9969          2.9969          0.0000          0.0000          0.0000
  15.8800          3.0311          3.0311          3.0311          0.0000          0.0000          0.0000
  15.9000          3.0613          3.0613          3.0613          0.0000          0.0000          0.0000
  15.9200          3.0849          3.0849          3.0849          0.0000          0.0000          0.0000
  15.9400          3.0994          3.0994          3.0994          0.0000          0.0000          0.0000
  15.9600          3.1031          3.1031          3.1031          0.0000          0.0000          0.0000
  15.9800          3.0951          3.0951          3.0951          0.0000          0.0000          0.0000
  16.0000          3.0753          3.0753          3.0753          0.0000          0.0000          0.0000
  16.0200          3.0445          3.0445          3.0445          0.0000          0.0000          0.0000
  16.0400          3.0041          3.0041          3.0041          0.0000          0.0000          0.0000
  16.0600          2.9562          2.9562          2.9562          0.0000          0.0000          0.0000
  16.0800          2.9029          2.9029          2.9029          0.0000          0.0000          0.0000
  16.1000          2.8469          2.8469          2.8469          0.0000          0.0000          0.0000
  16.1200          2.7904          2.7904          2.7904          0.0000          0.0000          0.0000
  16.1400          2.7358          2.7358          2.7358          0.0000          0.0000          0.0000
  16.1600          2.6850          2.6850          2.6850          0.0000          0.0000          0.0000
  16.1800          2.6396          2.6396          2.6396          0.0000          0.0000          0.0000
  16.2000          2.6008          2.6008          2.6008          0.0000          0.0000          0.0000
  16.2200          2.5696          2.5696          2.5696          0.0000          0.0000          0.0000
  16.2400          2.5464          2.5464          2.5464          0.0000          0.0000          0.0000
  16.2600          2.5316          2.5316          2.5316          0.0000          0.0000          0.0000
  16.2800          2.5251          2.5251          2.5251          0.0000          0.0000          0.0000
  16.3000          2.5265          2.5265          2.5265          0.0000          0.0000          0.0000
  16.3200          2.5351          2.5351          2.5351          0.0000          0.0000          0.0000
  16.3400          2.5501          2.5501          2.5501          0.0000          0.0000          0.0000
  16.3600          2.5702          2.5702          2.5702          0.0000          0.0000          0.0000
  16.3800          2.5943          2.5943          2.5943          0.0000          0.0000          0.0000
  16.4000          2.6210          2.6210          2.6210          0.0000          0.0000          0.0000
  16.4200          2.6490          2.6490          2.6490          0.0000          0.0000          0.0000
  16.4400          2.6773          2.6773          2.6773          0.0000          0.0000          0.0000
  16.4600          2.7047          2.7047          2.7047          0.0000          0.0000          0.0000
  16.4800          2.7304          2.7304          2.7304          0.0000          0.0000          0.0000
  16.5000          2.7538          2.7538          2.7538          0.0000          0.0000          0.0000
  16.5200          2.7746          2.7746          2.7746          0.0000          0.0000          0.0000
  16.5400          2.7924          2.7924          2.7924          0.0000          0.0000          0.0000
  16.5600          2.8073          2.8073          2.8073          0.0000          0.0000          0.0000
  16.5800          2.8194          2.8194          2.8194          0.0000          0.0000          0.0000
  16.6000          2.8285          2.8285          2.8285          0.0000          0.0000          0.0000
  16.6200          2.8346          2.8346          2.8346          0.0000          0.0000          0.0000
  16.6400          2.8372          2.8372          2.8372          0.0000          0.0000          0.0000
  16.6600          2.8361          2.8361          2.8361          0.0000          0.0000          0.0000
  16.6800          2.8310          2.8310          2.8310          0.0000          0.0000          0.0000
  16.7000          2.8219          2.8219          2.8219          0.0000          0.0000          0.0000
  16.7200          2.8094          2.8094          2.8094          0.0000          0.0000          0.0000
  16.7400          2.7941          2.7941          2.7941          0.0000          0.0000          0.0000
  16.7600          2.7774          2.7774          2.7774          0.0000          0.0000          0.0000
  16.7800          2.7607          2.7607          2.7607          0.0000          0.0000          0.0000
  16.8000          2.7456          2.7456          2.7456          0.0000          0.0000          0.0000
  16.8200          2.7336          2.7336          2.7336          0.0000          0.0000          0.0000
  16.8400          2.7259          2.7259          2.7259          0.0000          0.0000          0.0000
  16.8600          2.7231          2.7231          2.7231          0.0000          0.0000          0.0000
  16.8800          2.7256          2.7256          2.7256          0.0000          0.0000          0.0000
  16.9000          2.7329          2.7329          2.7329          0.0000          0.0000          0.0000
  16.9200          2.7440          2.7440          2.7440          0.0000          0.0000          0.0000
  16.9400          2.7574          2.7574          2.7574          0.0000          0.0000          0.0000
  16.9600          2.7713          2.7713          2.7713          0.0000          0.0000          0.0000
  16.9800          2.7839          2.7839          2.7839          0.0000          0.0000          0.0000
  17.0000          2.7940          2.7940          2.7940          0.0000          0.0000          0.0000
  17.0200          2.8003          2.8003          2.8003          0.0000          0.0000          0.0000
  17.0400          2.8026          2.8026          2.8026          0.0000          0.0000          0.0000
  17.0600          2.8011          2.8011          2.8011          0.0000          0.0000          0.0000
  17.0800          2.7964          2.7964          2.7964          0.0000          0.0000          0.0000
  17.1000          2.7894          2.7894          2.7894          0.0000          0.0000          0.0000
  17.1200          2.7811          2.7811          2.7811          0.0000          0.0000          0.0000
  17.1400          2.7722          2.7722          2.7722          0.0000          0.0000          0.0000
  17.1600          2.7629          2.7629          2.7629          0.0000          0.0000          0.0000
  17.1800          2.7530          2.7530          2.7530          0.0000          0.0000          0.0000
  17.2000          2.7418          2.7418          2.7418          0.0000          0.0000          0.0000
  17.2200          2.7283          2.7283          2.7283          0.0000          0.0000          0.0000
  17.2400          2.7117          2.7117          2.7117          0.0000          0.0000          0.0000
  17.2600          2.6910          2.6910          2.6910          0.0000          0.0000          0.0000
  17.2800          2.6659          2.6659          2.6659          0.0000          0.0000          0.0000
  17.3000          2.6365          2.6365          2.6365          0.0000          0.0000          0.0000
  17.3200          2.6034          2.6034          2.6034          0.0000          0.0000          0.0000
  17.3400          2.5679          2.5679          2.5679          0.0000          0.0000          0.0000
  17.3600          2.5316          2.5316          2.5316          0.0000          0.0000          0.0000
  17.3800          2.4964          2.4964          2.4964          0.0000          0.0000          0.0000
  17.4000          2.4641          2.4641          2.4641          0.0000          0.0000          0.0000
  17.4200          2.4366          2.4366          2.4366          0.0000          0.0000          0.0000
  17.4400          2.4150          2.4150          2.4150          0.0000          0.0000          0.0000
  17.4600          2.4004          2.4004          2.4004          0.0000          0.0000          0.0000
  17.4800          2.3928          2.3928          2.3928          0.0000          0.0000          0.0000
  17.5000          2.3919          2.3919          2.3919          0.0000          0.0000          0.0000
  17.5200          2.3968          2.3968          2.3968          0.0000          0.0000          0.0000
  17.5400          2.4062          2.4062          2.4062          0.0000          0.0000          0.0000
  17.5600          2.4188          2.4188          2.4188          0.0000          0.0000          0.0000
  17.5800          2.4333          2.4333          2.4333          0.0000          0.0000          0.0000
  17.6000          2.4485          2.4485          2.4485          0.0000          0.0000          0.0000
  17.6200          2.4640          2.4640          2.4640          0.0000          0.0000          0.0000
  17.6400          2.4794          2.4794          2.4794          0.0000          0.0000          0.0000
  17.6600          2.4950          2.4950          2.4950          0.0000          0.0000          0.0000
  17.6800          2.5112          2.5112          2.5112          0.0000          0.0000          0.0000
  17.7000          2.5285          2.5285          2.5285          0.0000          0.0000          0.0000
  17.7200          2.5472          2.5472          2.5472          0.0000          0.0000          0.0000
  17.7400          2.5673          2.5673          2.5673          0.0000          0.0000          0.0000
  17.7600          2.5885          2.5885          2.5885          0.0000          0.0000          0.0000
  17.7800          2.6101          2.6101          2.6101          0.0000          0.0000          0.0000
  17.8000          2.6312          2.6312          2.6312          0.0000          0.0000          0.0000
  17.8200          2.6508          2.6508          2.6508          0.0000          0.0000          0.0000
  17.8400          2.6676          2.6676          2.6676          0.0000          0.0000          0.0000
  17.8600          2.6807          2.6807          2.6807          0.0000          0.0000          0.0000
  17.8800          2.6891          2.6891          2.6891          0.0000          0.0000          0.0000
  17.9000          2.6918          2.6918          2.6918          0.0000          0.0000          0.0000
  17.9200          2.6882          2.6882          2.6882          0.0000          0.0000          0.0000
  17.9400          2.6779          2.6779          2.6779          0.0000          0.0000          0.0000
  17.9600          2.6607          2.6607          2.6607          0.0000          0.0000          0.0000
  17.9800          2.6369          2.6369          2.6369          0.0000          0.0000          0.0000
  18.0000          2.6076          2.6076          2.6076          0.0000          0.0000          0.0000
  18.0200          2.5740          2.5740          2.5740          0.0000          0.0000          0.0000
  18.0400          2.5381          2.5381          2.5381          0.0000          0.0000          0.0000
  18.0600          2.5019          2.5019          2.5019          0.0000          0.0000          0.0000
  18.0800          2.4678          2.4678          2.4678          0.0000          0.0000          0.0000
  18.1000          2.4378          2.4378          2.4378          0.0000          0.0000          0.0000
  18.1200          2.4135          2.4135          2.4135          0.0000          0.0000          0.0000
  18.1400          2.3959          2.3959          2.3959          0.0000          0.0000          0.0000
  18.1600          2.3854          2.3854          2.3854          0.0000          0.0000          0.0000
  18.1800          2.3816          2.3816          2.3816          0.0000          0.0000          0.0000
  18.2000          2.3834          2.3834          2.3834          0.0000          0.0000          0.0000
  18.2200          2.3893          2.3893          2.3893          0.0000          0.0000          0.0000
  18.2400          2.3979          2.3979          2.3979          0.0000          0.0000          0.0000
  18.2600          2.4075          2.4075          2.4075          0.0000          0.0000          0.0000
  18.2800          2.4172          2.4172          2.4172          0.0000          0.0000          0.0000
  18.3000          2.4261          2.4261          2.4261          0.0000          0.0000          0.0000
  18.3200          2.4341          2.4341          2.4341          0.0000          0.0000          0.0000
  18.3400          2.4413          2.4413          2.4413          0.0000          0.0000          0.0000
  18.3600          2.4479          2.4479          2.4479          0.0000          0.0000          0.0000
  18.3800          2.4546          2.4546          2.4546          0.0000          0.0000          0.0000
  18.4000          2.4619          2.4619          2.4619          0.0000          0.0000          0.0000
  18.4200          2.4702          2.4702          2.4702          0.0000          0.0000          0.0000
  18.4400          2.4801          2.4801          2.4801          0.0000          0.0000          0.0000
  18.4600          2.4918          2.4918          2.4918          0.0000          0.0000          0.0000
  18.4800          2.5054          2.5054          2.5054          0.0000          0.0000          0.0000
  18.5000          2.5210          2.5210          2.5210          0.0000          0.0000          0.0000
  18.5200          2.5381          2.5381          2.5381          0.0000          0.0000          0.0000
  18.5400          2.5565          2.5565          2.5565          0.0000          0.0000          0.0000
  18.5600          2.5758          2.5758          2.5758          0.0000          0.0000          0.0000
  18.5800          2.5955          2.5955          2.5955          0.0000          0.0000          0.0000
  18.6000          2.6154          2.6154          2.6154          0.0000          0.0000          0.0000
  18.6200          2.6353          2.6353          2.6353          0.0000          0.0000          0.0000
  18.6400          2.6551          2.6551          2.6551          0.0000          0.0000          0.0000
  18.6600          2.6749          2.6749          2.6749          0.0000          0.0000          0.0000
  18.6800          2.6947          2.6947          2.6947          0.0000          0.0000          0.0000
  18.7000          2.7142          2.7142          2.7142          0.0000          0.0000          0.0000
  18.7200          2.7334          2.7334          2.7334          0.0000          0.0000          0.0000
  18.7400          2.7523          2.7523          2.7523          0.0000          0.0000          0.0000
  18.7600          2.7705          2.7705          2.7705          0.0000          0.0000          0.0000
  18.7800          2.7881          2.7881          2.7881          0.0000          0.0000          0.0000
  18.8000          2.8052          2.8052          2.8052          0.0000          0.0000          0.0000
  18.8200          2.8221          2.8221          2.8221          0.0000          0.0000          0.0000
  18.8400          2.8395          2.8395          2.8395          0.0000          0.0000          0.0000
  18.8600          2.8583          2.8583          2.8583          0.0000          0.0000          0.0000
  18.8800          2.8796          2.8796          2.8796          0.0000          0.0000          0.0000
  18.9000          2.9048          2.9048          2.9048          0.0000          0.0000          0.0000
  18.9200          2.9348          2.9348          2.9348          0.0000          0.0000          0.0000
  18.9400          2.9703          2.9703          2.9703          0.0000          0.0000          0.0000
  18.9600          3.0115          3.0115          3.0115          0.0000          0.0000          0.0000
  18.9800          3.0580          3.0580          3.0580          0.0000          0.0000          0.0000
  19.0000          3.1089          3.1089          3.1089          0.0000          0.0000          0.0000
  19.0200          3.1632          3.1632          3.1632          0.0000          0.0000          0.0000
  19.0400          3.2197          3.2197          3.2197          0.0000          0.0000          0.0000
  19.0600          3.2777          3.2777          3.2777          0.0000          0.0000          0.0000
  19.0800          3.3367          3.3367          3.3367          0.0000          0.0000          0.0000
  19.1000          3.3966          3.3966          3.3966          0.0000          0.0000          0.0000
  19.1200          3.4575          3.4575          3.4575          0.0000          0.0000          0.0000
  19.1400          3.5194          3.5194          3.5194          0.0000          0.0000          0.0000
  19.1600          3.5824          3.5824          3.5824          0.0000          0.0000          0.0000
  19.1800          3.6461          3.6461          3.6461          0.0000          0.0000          0.0000
  19.2000          3.7098          3.7098          3.7098          0.0000          0.0000          0.0000
  19.2200          3.7732          3.7732          3.7732          0.0000          0.0000          0.0000
  19.2400          3.8361          3.8361          3.8361          0.0000          0.0000          0.0000
  19.2600          3.8987          3.8987          3.8987          0.0000          0.0000          0.0000
  19.2800          3.9614          3.9614          3.9614          0.0000          0.0000          0.0000
  19.3000          4.0249          4.0249          4.0249          0.0000          0.0000          0.0000
  19.3200          4.0896          4.0896          4.0896          0.0000          0.0000          0.0000
  19.3400          4.1557          4.1557          4.1557          0.0000          0.0000          0.0000
  19.3600          4.2223          4.2223          4.2223          0.0000          0.0000          0.0000
  19.3800          4.2881          4.2881          4.2881          0.0000          0.0000          0.0000
  19.4000          4.3512          4.3512          4.3512          0.0000          0.0000          0.0000
  19.4200          4.4097          4.4097          4.4097          0.0000          0.0000          0.0000
  19.4400          4.4618          4.4618          4.4618          0.0000          0.0000          0.0000
  19.4600          4.5062          4.5062          4.5062          0.0000          0.0000          0.0000
  19.4800          4.5422          4.5422          4.5422          0.0000          0.0000          0.0000
  19.5000          4.5700          4.5700          4.5700          0.0000          0.0000          0.0000
  19.5200          4.5897          4.5897          4.5897          0.0000          0.0000          0.0000
  19.5400          4.6017          4.6017          4.6017          0.0000          0.0000          0.0000
  19.5600          4.6061          4.6061          4.6061          0.0000          0.0000          0.0000
  19.5800          4.6024          4.6024          4.6024          0.0000          0.0000          0.0000
  19.6000          4.5898          4.5898          4.5898          0.0000          0.0000          0.0000
  19.6200          4.5676          4.5676          4.5676          0.0000          0.0000          0.0000
  19.6400          4.5348          4.5348          4.5348          0.0000          0.0000          0.0000
  19.6600          4.4913          4.4913          4.4913          0.0000          0.0000          0.0000
  19.6800          4.4376          4.4376          4.4376          0.0000          0.0000          0.0000
  19.7000          4.3747          4.3747          4.3747          0.0000          0.0000          0.0000
  19.7200          4.3041          4.3041          4.3041          0.0000          0.0000          0.0000
  19.7400          4.2272          4.2272          4.2272          0.0000          0.0000          0.0000
  19.7600          4.1454          4.1454          4.1454          0.0000          0.0000          0.0000
  19.7800          4.0593          4.0593          4.0593          0.0000          0.0000          0.0000
  19.8000          3.9692          3.9692          3.9692          0.0000          0.0000          0.0000
  19.8200          3.8744          3.8744          3.8744          0.0000          0.0000          0.0000
  19.8400          3.7736          3.7736          3.7736          0.0000          0.0000          0.0000
  19.8600          3.6648          3.6648          3.6648          0.0000          0.0000          0.0000
  19.8800          3.5454          3.5454          3.5454          0.0000          0.0000          0.0000
  19.9000          3.4124          3.4124          3.4124          0.0000          0.0000          0.0000
  19.9200          3.2619          3.2619          3.2619          0.0000          0.0000          0.0000
  19.9400          3.0891          3.0891          3.0891          0.0000          0.0000          0.0000
  19.9600          2.8894          2.8894          2.8894          0.0000          0.0000          0.0000
  19.9800          2.6597          2.6597          2.6597          0.0000          0.0000          0.0000
  20.0000          2.4027          2.4027          2.4027          0.0000          0.0000          0.0000
