# E(eV)    s-DOS    p-DOS    d-DOS    Total
-13.881936 0.000000 0.000000 0.000000 0.000000
-13.595936 0.000000 0.000000 0.000000 0.000000
-13.308936 0.000000 0.000000 0.000000 0.000000
-13.022936 0.000000 0.000000 0.000000 0.000000
-12.736936 0.000000 0.000000 0.000000 0.000000
-12.449936 0.000000 0.000000 0.000000 0.000000
-12.163936 0.000000 0.000000 0.000000 0.000000
-11.876936 0.000000 0.000000 0.000000 0.000000
-11.590936 0.000000 0.000000 0.000000 0.000000
-11.304936 0.000000 0.000000 0.000000 0.000000
-11.017936 0.000000 0.000000 0.000000 0.000000
-10.731936 0.000000 0.000000 0.000000 0.000000
-10.444936 0.000000 0.000000 0.000000 0.000000
-10.158936 0.000007 0.000000 0.000000 0.000007
-9.871936 0.006242 0.000052 0.000001 0.006296
-9.585936 0.027290 0.000646 0.000045 0.027981
-9.299936 0.040640 0.001863 0.000256 0.042759
-9.012936 0.051370 0.003554 0.000810 0.055734
-8.726936 0.060220 0.005576 0.001943 0.067739
-8.439936 0.068820 0.007960 0.004069 0.080849
-8.153936 0.080610 0.011190 0.008264 0.100064
-7.867936 0.093790 0.015170 0.016840 0.125800
-7.580936 0.111700 0.020070 0.038250 0.170020
-7.294936 0.167500 0.027740 0.170700 0.365940
-7.007936 0.204300 0.037350 0.380500 0.622150
-6.721936 0.225600 0.053230 0.793300 1.072130
-6.435936 0.191000 0.059280 1.274000 1.524280
-6.148936 0.116500 0.058020 1.275000 1.449520
-5.862936 0.056740 0.061140 1.157000 1.274880
-5.575936 0.018060 0.069290 1.084000 1.171350
-5.289936 0.019620 0.090850 1.486000 1.596470
-5.002936 0.027550 0.079890 1.640000 1.747440
-4.716936 0.041510 0.096000 1.785000 1.922510
-4.430936 0.049910 0.124100 2.427000 2.601010
-4.143936 0.039490 0.105700 2.001000 2.146190
-3.857936 0.029260 0.086860 1.383000 1.499120
-3.570936 0.021870 0.072140 1.470000 1.564010
-3.284936 0.023290 0.064800 1.814000 1.902090
-2.998936 0.021190 0.055960 1.676000 1.753150
-2.711936 0.014720 0.041620 1.472000 1.528340
-2.425936 0.013810 0.033420 1.503000 1.550230
-2.138936 0.015200 0.028210 1.974000 2.017410
-1.852936 0.019000 0.022770 2.342000 2.383770
-1.566936 0.023690 0.023180 0.847600 0.894470
-1.279936 0.026420 0.026630 0.201500 0.254550
-0.993936 0.030120 0.033040 0.174300 0.237460
-0.706936 0.035470 0.044910 0.170300 0.250680
-0.420936 0.038290 0.044620 0.156900 0.239810
-0.133936 0.043940 0.055180 0.157600 0.256720
0.152064 0.045390 0.055720 0.137100 0.238210
0.438064 0.042690 0.057410 0.118900 0.219000
0.725064 0.050940 0.062480 0.122200 0.235620
1.011064 0.050120 0.065410 0.106900 0.222430
1.298064 0.050750 0.072890 0.102000 0.225640
1.584064 0.054740 0.065340 0.093570 0.213650
1.870064 0.056220 0.075210 0.090930 0.222360
2.157064 0.054700 0.059060 0.074080 0.187840
2.443064 0.058460 0.062160 0.070340 0.190960
2.730064 0.065260 0.060280 0.067640 0.193180
3.016064 0.099510 0.051810 0.077720 0.229040
3.302064 0.185200 0.056170 0.122900 0.364270
3.589064 0.127500 0.058120 0.081110 0.266730
3.875064 0.106100 0.054360 0.067180 0.227640
4.162064 0.092890 0.069830 0.068120 0.230840
4.448064 0.072320 0.064140 0.053100 0.189560
4.734064 0.082440 0.087180 0.063350 0.232970
5.021064 0.080200 0.091590 0.059940 0.231730
5.307064 0.105600 0.101700 0.069330 0.276630
5.594064 0.097970 0.101400 0.061650 0.261020
5.880064 0.114100 0.100900 0.065530 0.280530
6.167064 0.087380 0.098890 0.055260 0.241530
6.453064 0.081460 0.082120 0.045880 0.209460
6.739064 0.073390 0.085000 0.043000 0.201390
7.026064 0.078380 0.089450 0.044780 0.212610
7.312064 0.072480 0.099140 0.051060 0.222680
7.599064 0.072480 0.118400 0.064070 0.254950
7.885064 0.066460 0.113500 0.054120 0.234080
8.171064 0.062570 0.127800 0.065390 0.255760
8.458064 0.059020 0.141300 0.068730 0.269050
8.744064 0.038410 0.110200 0.049510 0.198120
9.031064 0.060520 0.161200 0.072460 0.294180
9.317064 0.035830 0.130100 0.062130 0.228060
9.603064 0.046290 0.150100 0.060010 0.256400
9.890064 0.029700 0.158800 0.080300 0.268800
10.176064 0.042830 0.204500 0.087240 0.334570
10.463064 0.026660 0.190900 0.080120 0.297680
10.749064 0.034560 0.209600 0.085680 0.329840
11.036064 0.028650 0.211300 0.092630 0.332580
11.322064 0.026090 0.196900 0.082160 0.305150
11.608064 0.024620 0.202300 0.088520 0.315440
11.895064 0.025510 0.191800 0.085970 0.303280
12.181064 0.020440 0.211500 0.095860 0.327800
12.468064 0.022520 0.177100 0.080540 0.280160
12.754064 0.017240 0.198600 0.092470 0.308310
13.040064 0.021020 0.194500 0.089590 0.305110
13.327064 0.015310 0.170600 0.085730 0.271640
13.613064 0.014370 0.171200 0.081690 0.267260
13.900064 0.016310 0.192900 0.094460 0.303670
14.186064 0.012500 0.147100 0.078240 0.237840
14.472064 0.013030 0.168400 0.092400 0.273830
14.759064 0.008470 0.158100 0.079320 0.245890
15.045064 0.012760 0.143500 0.089500 0.245760
15.332064 0.009796 0.128200 0.077810 0.215806
15.618064 0.007143 0.118700 0.065640 0.191483
15.905064 0.007022 0.111900 0.065630 0.184552
16.191064 0.010860 0.117500 0.076940 0.205300
16.477064 0.007826 0.093810 0.051840 0.153476
16.764064 0.008532 0.114500 0.046800 0.169832
17.050064 0.013760 0.127000 0.059610 0.200370
17.337064 0.021820 0.179300 0.075600 0.276720
17.623064 0.030080 0.199000 0.108500 0.337580
17.909064 0.034610 0.202800 0.131400 0.368810
18.196064 0.033260 0.172900 0.133200 0.339360
18.482064 0.020830 0.193800 0.104300 0.318930
18.769064 0.021280 0.181100 0.104600 0.306980
19.055064 0.011690 0.141100 0.083740 0.236530
19.341064 0.014040 0.152400 0.089350 0.255790
19.628064 0.014650 0.127600 0.098310 0.240560
19.914064 0.008507 0.113900 0.111000 0.233407
20.201064 0.010260 0.105100 0.109000 0.224360
20.487064 0.012390 0.105600 0.095970 0.213960
20.773064 0.008430 0.074980 0.078440 0.161850
21.060064 0.010310 0.074510 0.052380 0.137200
21.346064 0.013900 0.085070 0.078320 0.177290
21.633064 0.004725 0.055640 0.032770 0.093135
21.919064 0.014190 0.105300 0.072680 0.192170
22.206064 0.013520 0.120600 0.053480 0.187600
22.492064 0.005649 0.095420 0.043620 0.144689
22.778064 0.013190 0.084870 0.074490 0.172550
23.065064 0.004899 0.057460 0.050400 0.112759
23.351064 0.003477 0.041270 0.057810 0.102557
23.638064 0.011210 0.060310 0.104200 0.175720
23.924064 0.004101 0.047640 0.106400 0.158141
24.210064 0.004635 0.050120 0.131500 0.186255
24.497064 0.010480 0.048560 0.163700 0.222740
24.783064 0.007540 0.058320 0.220000 0.285860
25.070064 0.006509 0.041370 0.230500 0.278379
25.356064 0.010850 0.049640 0.199900 0.260390
25.642064 0.009609 0.059050 0.184500 0.253159
25.929064 0.014850 0.057950 0.190500 0.263300
26.215064 0.022800 0.056230 0.214900 0.293930
26.502064 0.031830 0.066180 0.244000 0.342010
26.788064 0.019870 0.042390 0.186700 0.248960
27.075064 0.020690 0.043660 0.200500 0.264850
27.361064 0.022740 0.051120 0.182500 0.256360
27.647064 0.017520 0.037840 0.147400 0.202760
27.934064 0.019280 0.040570 0.167600 0.227450
28.220064 0.022080 0.044860 0.172800 0.239740
28.507064 0.037110 0.046770 0.208200 0.292080
28.793064 0.049440 0.056860 0.172600 0.278900
29.079064 0.050460 0.046480 0.148600 0.245540
29.366064 0.054960 0.058750 0.126900 0.240610
29.652064 0.043830 0.047540 0.107600 0.198970
29.939064 0.029190 0.057440 0.086630 0.173260
30.225064 0.023820 0.051910 0.076830 0.152560
30.511064 0.029660 0.075240 0.091800 0.196700
30.798064 0.033400 0.075780 0.079000 0.188180
31.084064 0.033130 0.069930 0.088310 0.191370
31.371064 0.040110 0.081910 0.106300 0.228320
31.657064 0.041500 0.083000 0.107400 0.231900
31.944064 0.034200 0.083690 0.110400 0.228290
32.230064 0.034740 0.092110 0.116200 0.243050
32.516064 0.031120 0.102900 0.123000 0.257020
32.803064 0.025700 0.103700 0.126200 0.255600
33.089064 0.025720 0.121000 0.133100 0.279820
33.376064 0.024480 0.134400 0.160800 0.319680
33.662064 0.020470 0.101400 0.136500 0.258370
33.948064 0.020870 0.148300 0.167800 0.336970
34.235064 0.022530 0.144700 0.178400 0.345630
34.521064 0.018500 0.156500 0.152200 0.327200
34.808064 0.019380 0.161400 0.150500 0.331280
35.094064 0.021060 0.168000 0.169700 0.358760
35.380064 0.024860 0.175000 0.164800 0.364660
35.667064 0.021410 0.160000 0.147500 0.328910
35.953064 0.018920 0.153500 0.125900 0.298320
36.240064 0.016800 0.177000 0.127800 0.321600
36.526064 0.012320 0.146000 0.098900 0.257220
36.812064 0.009874 0.171200 0.105800 0.286874
37.099064 0.010800 0.207400 0.119000 0.337200
37.385064 0.009892 0.259400 0.131600 0.400892
37.672064 0.007841 0.239600 0.103800 0.351241
37.958064 0.007409 0.282600 0.116200 0.406209
38.245064 0.005650 0.240900 0.087240 0.333790
38.531064 0.007342 0.302400 0.110700 0.420442
38.817064 0.010040 0.315400 0.090780 0.416220
39.104064 0.013000 0.296100 0.092030 0.401130
39.390064 0.014150 0.407000 0.097610 0.518760
39.677064 0.011560 0.478200 0.091320 0.581080
39.963064 0.012210 0.627400 0.101300 0.740910
40.249064 0.013750 0.759500 0.101700 0.874950
40.536064 0.021900 0.949000 0.093640 1.064540
40.822064 0.043210 1.231000 0.078330 1.352540
41.109064 0.020350 1.298000 0.066870 1.385220
41.395064 0.004546 1.121000 0.064590 1.190136
41.681064 0.004228 0.997800 0.061440 1.063468
41.968064 0.012830 1.223000 0.066940 1.302770
42.254064 0.028470 1.157000 0.086220 1.271690
42.541064 0.018200 0.672700 0.057450 0.748350
42.827064 0.014510 0.565000 0.052690 0.632200
43.114064 0.009699 0.506200 0.060680 0.576579
43.400064 0.010900 0.642100 0.094340 0.747340
43.686064 0.012500 0.683000 0.110400 0.805900
43.973064 0.011730 0.682600 0.133600 0.827930
44.259064 0.021920 0.803700 0.173200 0.998820
44.546064 0.019120 0.534200 0.161800 0.715120
44.832064 0.016370 0.342900 0.158900 0.518170
45.118064 0.014050 0.439600 0.207900 0.661550
45.405064 0.008816 0.333600 0.181700 0.524116
45.691064 0.008447 0.161900 0.117300 0.287647
45.978064 0.010340 0.138100 0.106600 0.255040
46.264064 0.010660 0.154500 0.128700 0.293860
46.550064 0.015300 0.157800 0.143900 0.317000
46.837064 0.014460 0.136500 0.161400 0.312360
47.123064 0.020150 0.154100 0.195700 0.369950
47.410064 0.021640 0.145100 0.200200 0.366940
47.696064 0.019540 0.137000 0.211600 0.368140
47.983064 0.017140 0.125300 0.198300 0.340740
48.269064 0.017810 0.105800 0.136700 0.260310
48.555064 0.022280 0.096760 0.127600 0.246640
48.842064 0.022990 0.094580 0.112800 0.230370
49.128064 0.023250 0.085230 0.122600 0.231080
49.415064 0.019580 0.075790 0.135800 0.231170
49.701064 0.019610 0.101900 0.214900 0.336410
49.987064 0.024590 0.094840 0.215400 0.334830
50.274064 0.022220 0.104100 0.213000 0.339320
50.560064 0.014980 0.084070 0.174300 0.273350
50.847064 0.020630 0.063870 0.138300 0.222800
51.133064 0.030840 0.049310 0.123700 0.203850
51.419064 0.045380 0.072820 0.153300 0.271500
51.706064 0.033770 0.058190 0.107000 0.198960
51.992064 0.044000 0.049830 0.096670 0.190500
52.279064 0.045790 0.053860 0.104400 0.204050
52.565064 0.049610 0.053920 0.122100 0.225630
52.851064 0.070610 0.064280 0.134000 0.268890
53.138064 0.045560 0.046710 0.123600 0.215870
53.424064 0.047870 0.045460 0.129900 0.223230
53.711064 0.053920 0.052210 0.146100 0.252230
53.997064 0.059010 0.051980 0.135700 0.246690
54.284064 0.054730 0.039580 0.133000 0.227310
54.570064 0.064820 0.048690 0.167200 0.280710
54.856064 0.073080 0.049870 0.147700 0.270650
55.143064 0.073600 0.049920 0.167900 0.291420
55.429064 0.070910 0.052660 0.158200 0.281770
55.716064 0.082810 0.051320 0.183600 0.317730
56.002064 0.085600 0.063150 0.205100 0.353850
56.288064 0.086250 0.058910 0.213100 0.358260
56.575064 0.118100 0.057660 0.167100 0.342860
56.861064 0.152000 0.062690 0.184100 0.398790
57.148064 0.136700 0.044850 0.139600 0.321150
57.434064 0.166100 0.046740 0.119100 0.331940
57.720064 0.199900 0.045840 0.124700 0.370440
58.007064 0.172000 0.044760 0.107900 0.324660
58.293064 0.179500 0.041110 0.104600 0.325210
58.580064 0.175800 0.047080 0.113000 0.335880
58.866064 0.312000 0.049480 0.105000 0.466480
59.153064 0.420300 0.042360 0.093750 0.556410
59.439064 0.351100 0.024170 0.066850 0.442120
59.725064 0.129200 0.019360 0.045460 0.194020
60.012064 0.133400 0.018180 0.045950 0.197530
60.298064 0.158600 0.020420 0.054580 0.233600
60.585064 0.147800 0.021890 0.053340 0.223030
60.871064 0.121900 0.026070 0.048980 0.196950
61.157064 0.076840 0.015160 0.029800 0.121800
61.444064 0.031580 0.004105 0.010970 0.046655
61.730064 0.026750 0.004195 0.009920 0.040865
62.017064 0.019230 0.001610 0.004257 0.025097
62.303064 0.013490 0.001386 0.004706 0.019582
62.589064 0.010540 0.002712 0.006027 0.019279
62.876064 0.021830 0.002141 0.006943 0.030914
63.162064 0.009506 0.000919 0.005362 0.015787
63.449064 0.011130 0.002970 0.007729 0.021829
63.735064 0.007203 0.002408 0.005562 0.015173
64.022064 0.003392 0.001404 0.002723 0.007519
64.308064 0.000600 0.000990 0.001632 0.003222
64.594064 0.001043 0.001766 0.003428 0.006237
64.881064 0.000020 0.000130 0.000155 0.000304
65.167064 0.000005 0.000020 0.000041 0.000066
65.454064 0.000167 0.000429 0.000979 0.001576
65.740064 0.000259 0.000414 0.001107 0.001781
66.026064 0.000000 0.000000 0.000000 0.000001
66.313064 0.000019 0.000085 0.000249 0.000354
66.599064 0.000126 0.000386 0.001217 0.001729
66.886064 0.000002 0.000005 0.000018 0.000025
67.172064 0.000000 0.000003 0.000012 0.000015
67.458064 0.000033 0.000184 0.000827 0.001043
67.745064 0.000001 0.000006 0.000028 0.000035
68.031064 0.000000 0.000003 0.000024 0.000027
68.318064 0.000003 0.000033 0.000318 0.000355
68.604064 0.000000 0.000000 0.000002 0.000002
68.890064 0.000000 0.000000 0.000000 0.000000
69.177064 0.000000 0.000000 0.000000 0.000000
69.463064 0.000000 0.000000 0.000000 0.000000
69.750064 0.000000 0.000000 0.000000 0.000000
70.036064 0.000000 0.000000 0.000000 0.000000
70.323064 0.000000 0.000000 0.000000 0.000000
70.609064 0.000000 0.000000 0.000000 0.000000
70.895064 0.000000 0.000000 0.000000 0.000000
71.182064 0.000000 0.000000 0.000000 0.000000
71.468064 0.000000 0.000000 0.000000 0.000000
71.755064 0.000000 0.000000 0.000000 0.000000
72.041064 0.000000 0.000000 0.000000 0.000000
